,ax,ay,az,gx,gy,gz,cx,cy,cz
1,-1151,-1230,-3969,-51,-8,6,-375,-62,-684
1,-1148,-1181,-3957,-35,-13,-18,-375,-62,-684
1,-1121,-1202,-4053,-14,-10,-32,-375,-62,-684
1,-1136,-1209,-3974,-5,-5,-28,-375,-62,-684
1,-1176,-1214,-4024,1,-12,-22,-375,-62,-684
1,-1128,-1208,-3998,12,-4,7,-375,-62,-684
1,-1177,-1216,-4039,11,6,37,-375,-62,-684
1,-1172,-1206,-4062,11,21,66,-375,-62,-684
1,-1152,-1230,-4037,6,31,101,-375,-62,-684
1,-1167,-1233,-4041,1,47,121,-375,-62,-684
1,-1138,-1231,-4050,-4,50,134,-375,-62,-684
1,-1120,-1239,-4020,-11,48,142,-375,-62,-684
1,-1131,-1243,-4019,-9,55,132,-375,-62,-684
1,-1127,-1226,-4013,-20,50,119,-375,-62,-684
1,-1101,-1242,-4012,-20,42,102,-381,-58,-692
1,-1118,-1264,-4047,-26,36,74,-381,-58,-692
1,-1105,-1269,-4047,-27,31,39,-381,-58,-692
1,-1121,-1255,-4043,-30,16,23,-381,-58,-692
1,-1120,-1217,-4011,-34,9,1,-381,-58,-692
1,-1113,-1284,-3995,-50,-1,-15,-381,-58,-692
1,-1099,-1254,-4022,-56,0,-30,-381,-58,-692
1,-1172,-1282,-4031,-69,-4,-39,-381,-58,-692
1,-1134,-1256,-4010,-80,-3,-49,-381,-58,-692
1,-1147,-1260,-4084,-93,2,-50,-381,-58,-692
1,-1133,-1243,-4049,-109,6,-57,-381,-58,-692
1,-1150,-1246,-4053,-125,3,-56,-381,-58,-692
1,-1114,-1251,-4039,-130,4,-64,-381,-58,-692
1,-1111,-1231,-4007,-137,3,-65,-381,-58,-692
1,-1146,-1220,-4012,-143,-7,-72,-381,-58,-692
1,-1133,-1235,-4028,-137,-16,-78,-381,-58,-692
1,-1125,-1216,-3980,-135,-14,-88,-374,-65,-689
1,-1123,-1214,-3991,-129,-22,-91,-374,-65,-689
1,-1130,-1212,-4029,-123,-26,-103,-374,-65,-689
1,-1138,-1225,-4023,-113,-29,-105,-374,-65,-689
1,-1155,-1213,-4030,-109,-22,-113,-374,-65,-689
1,-1138,-1214,-4015,-104,-19,-102,-374,-65,-689
1,-1181,-1219,-4014,-91,-22,-84,-374,-65,-689
1,-1172,-1203,-4018,-91,-6,-68,-374,-65,-689
1,-1185,-1195,-4005,-90,-4,-48,-374,-65,-689
1,-1169,-1235,-4000,-79,1,-28,-374,-65,-689
1,-1175,-1210,-4021,-70,7,-7,-374,-65,-689
1,-1146,-1192,-4027,-66,10,16,-374,-65,-689
1,-1160,-1178,-4029,-54,11,26,-374,-65,-689
1,-1173,-1206,-4019,-48,18,41,-374,-65,-689
1,-1154,-1201,-4016,-38,13,44,-374,-65,-689
1,-1154,-1220,-3997,-32,12,39,-374,-65,-689
1,-1132,-1208,-4023,-18,8,40,-374,-60,-687
1,-1118,-1239,-4040,-11,17,32,-374,-60,-687
1,-1138,-1206,-4038,-17,9,30,-374,-60,-687
1,-1134,-1201,-4074,-11,14,34,-374,-60,-687
1,-1133,-1203,-4016,-17,20,36,-374,-60,-687
1,-1141,-1216,-4044,-18,17,46,-374,-60,-687
1,-1115,-1207,-4029,-19,17,50,-374,-60,-687
1,-1123,-1214,-4042,-27,21,57,-374,-60,-687
1,-1132,-1222,-4043,-40,19,59,-374,-60,-687
1,-1115,-1192,-4059,-40,25,52,-374,-60,-687
1,-1118,-1237,-4045,-44,22,51,-374,-60,-687
1,-1113,-1231,-3985,-51,16,31,-374,-60,-687
1,-1101,-1205,-4053,-59,13,30,-374,-60,-687
1,-1109,-1208,-4039,-62,9,4,-374,-60,-687
1,-1090,-1220,-4052,-64,1,-10,-374,-60,-687
1,-1117,-1225,-4058,-66,2,-29,-374,-60,-687
1,-1127,-1215,-4064,-72,-7,-36,-379,-59,-690
1,-1132,-1223,-4048,-76,-2,-40,-379,-59,-690
1,-1104,-1223,-4081,-81,-9,-44,-379,-59,-690
1,-1121,-1216,-4021,-81,-5,-50,-379,-59,-690
1,-1140,-1218,-4023,-95,-7,-48,-379,-59,-690
1,-1122,-1226,-4047,-90,2,-45,-379,-59,-690
1,-1148,-1218,-4039,-93,-1,-49,-379,-59,-690
1,-1131,-1226,-4036,-98,-5,-48,-379,-59,-690
1,-1139,-1206,-4018,-99,9,-42,-379,-59,-690
1,-1141,-1202,-4035,-98,0,-46,-379,-59,-690
1,-1127,-1220,-4001,-94,-2,-39,-379,-59,-690
1,-1152,-1231,-4029,-89,13,-41,-379,-59,-690
1,-1144,-1215,-3999,-89,-1,-35,-379,-59,-690
1,-1154,-1210,-4036,-90,7,-30,-379,-59,-690
1,-1157,-1212,-4065,-76,2,-34,-379,-59,-690
1,-1159,-1233,-3995,-73,-1,-22,-379,-59,-690
1,-1159,-1206,-4033,-66,9,-17,-377,-67,-688
1,-1150,-1232,-4006,-58,12,-3,-377,-67,-688
1,-1160,-1235,-4003,-42,10,6,-377,-67,-688
1,-1162,-1214,-4024,-45,13,13,-377,-67,-688
1,-1141,-1205,-4042,-46,23,22,-377,-67,-688
1,-1140,-1208,-4029,-33,13,29,-377,-67,-688
1,-1157,-1219,-4014,-31,21,42,-377,-67,-688
1,-1151,-1220,-4008,-31,22,42,-377,-67,-688
1,-1130,-1217,-4016,-21,19,55,-377,-67,-688
1,-1102,-1236,-3984,-30,24,61,-377,-67,-688
1,-1111,-1233,-4011,-24,24,59,-377,-67,-688
1,-1115,-1232,-3999,-22,24,62,-377,-67,-688
1,-1153,-1242,-4014,-19,17,58,-377,-67,-688
1,-1118,-1252,-4025,-13,10,50,-377,-67,-688
1,-1117,-1254,-3995,-11,13,40,-377,-67,-688
1,-1128,-1245,-4028,-19,8,31,-377,-67,-688
1,-1145,-1208,-4025,-26,4,8,-377,-67,-688
1,-1129,-1255,-4070,-30,9,13,-375,-62,-687
1,-1129,-1233,-4072,-42,6,5,-375,-62,-687
1,-1122,-1231,-4072,-41,3,5,-375,-62,-687
1,-1125,-1234,-4049,-47,-5,5,-375,-62,-687
1,-1127,-1236,-4049,-58,4,-2,-375,-62,-687
1,-1123,-1259,-4021,-75,9,-10,-375,-62,-687
1,-1116,-1207,-4054,-91,9,-18,-375,-62,-687
1,-1140,-1229,-4043,-102,9,-17,-375,-62,-687
1,-1095,-1247,-4014,-104,1,-26,-375,-62,-687
1,-1115,-1215,-3991,-106,-16,-37,-375,-62,-687
1,-1125,-1227,-4022,-94,-21,-46,-375,-62,-687
1,-1131,-1232,-4014,-87,-26,-69,-375,-62,-687
1,-1135,-1225,-4029,-102,-37,-95,-375,-62,-687
1,-1165,-1234,-4036,-103,-32,-112,-375,-62,-687
1,-1148,-1215,-4026,-104,-26,-128,-375,-62,-687
1,-1142,-1206,-4053,-108,-22,-118,-375,-62,-687
1,-1162,-1199,-4009,-112,-26,-105,-379,-59,-695
1,-1179,-1238,-4040,-114,-18,-86,-379,-59,-695
1,-1158,-1205,-4011,-116,-11,-65,-379,-59,-695
1,-1193,-1215,-4030,-116,-2,-47,-379,-59,-695
1,-1176,-1205,-4045,-118,8,-26,-379,-59,-695
1,-1167,-1203,-3998,-118,16,-12,-379,-59,-695
1,-1143,-1186,-3983,-110,14,-7,-379,-59,-695
1,-1126,-1184,-4020,-101,14,-6,-379,-59,-695
1,-1137,-1195,-3976,-82,7,-3,-379,-59,-695
1,-1143,-1168,-4039,-53,-3,-9,-379,-59,-695
1,-1122,-1181,-4056,-41,1,-17,-379,-59,-695
1,-1130,-1219,-4039,-35,-10,-24,-379,-59,-695
1,-1152,-1187,-4024,-33,6,-32,-379,-59,-695
1,-1152,-1203,-4060,-34,11,-18,-379,-59,-695
1,-1159,-1195,-4059,-28,31,-10,-379,-59,-695
1,-1149,-1221,-4031,-37,34,28,-379,-59,-695
1,-1141,-1186,-4044,-37,49,63,-374,-69,-688
1,-1133,-1175,-4044,-43,55,99,-374,-69,-688
1,-1171,-1194,-4021,-43,55,125,-374,-69,-688
1,-1114,-1175,-4029,-46,54,139,-374,-69,-688
1,-1127,-1214,-4030,-43,51,131,-374,-69,-688
1,-1118,-1203,-4029,-28,39,122,-374,-69,-688
1,-1059,-1243,-4038,-24,33,83,-374,-69,-688
1,-1086,-1211,-4016,-20,16,57,-374,-69,-688
1,-1092,-1209,-4080,-13,9,21,-374,-69,-688
1,-1111,-1247,-4055,-14,-1,-6,-374,-69,-688
1,-1121,-1230,-4064,-10,-5,-31,-374,-69,-688
1,-1106,-1236,-4075,-23,3,-32,-374,-69,-688
1,-1108,-1236,-4032,-29,-6,-22,-374,-69,-688
1,-1166,-1251,-4047,-47,14,-8,-374,-69,-688
1,-1133,-1239,-4045,-54,12,14,-374,-69,-688
1,-1141,-1232,-4028,-67,23,17,-374,-69,-688
1,-1137,-1226,-4017,-74,20,36,-375,-62,-687
1,-1122,-1213,-3988,-84,25,49,-375,-62,-687
1,-1087,-1217,-4029,-74,12,45,-375,-62,-687
1,-1106,-1256,-3993,-82,-2,12,-375,-62,-687
1,-1097,-1232,-4023,-79,-16,-18,-375,-62,-687
1,-1120,-1229,-4004,-62,-33,-41,-375,-62,-687
1,-1116,-1255,-4041,-37,-37,-67,-375,-62,-687
1,-1138,-1280,-4017,-35,-35,-97,-375,-62,-687
1,-1132,-1270,-4034,-55,-24,-113,-375,-62,-687
1,-1164,-1244,-4047,-66,-9,-101,-375,-62,-687
1,-1129,-1223,-4017,-71,2,-62,-375,-62,-687
1,-1177,-1218,-4031,-76,13,-17,-375,-62,-687
1,-1145,-1259,-3909,-71,6,43,-375,-62,-687
1,-1166,-1259,-3965,-59,-6,74,-375,-62,-687
1,-1137,-1251,-4002,-53,-12,72,-375,-62,-687
1,-1125,-1261,-4034,-45,0,26,-375,-62,-687
1,-1137,-1262,-4046,-55,9,-20,-379,-59,-689
1,-1140,-1273,-3989,-49,-2,-39,-379,-59,-689
1,-1152,-1260,-4001,-50,-17,-42,-379,-59,-689
1,-1151,-1262,-4028,-30,-22,-43,-379,-59,-689
1,-1176,-1279,-4006,-27,-33,-49,-379,-59,-689
1,-1178,-1273,-4024,-20,-31,-58,-379,-59,-689
1,-1213,-1284,-4037,-28,-16,-52,-379,-59,-689
1,-1188,-1252,-4021,-56,13,-38,-379,-59,-689
1,-1196,-1276,-4013,-82,32,-13,-379,-59,-689
1,-1172,-1229,-4001,-106,53,21,-379,-59,-689
1,-1199,-1234,-3968,-119,50,58,-379,-59,-689
1,-1162,-1214,-3954,-113,49,88,-379,-59,-689
1,-1106,-1228,-3960,-99,29,86,-379,-59,-689
1,-1109,-1256,-3996,-81,9,74,-379,-59,-689
1,-1118,-1241,-3955,-78,-4,41,-379,-59,-689
1,-1106,-1271,-3995,-61,-24,-17,-379,-59,-689
1,-1094,-1268,-3971,-47,-28,-76,-375,-66,-688
1,-1108,-1252,-4003,-55,-25,-125,-375,-66,-688
1,-1128,-1235,-4028,-54,-19,-128,-375,-66,-688
1,-1155,-1231,-4051,-55,-23,-118,-375,-66,-688
1,-1183,-1210,-4070,-62,-12,-77,-375,-66,-688
1,-1174,-1222,-4058,-70,4,-37,-375,-66,-688
1,-1190,-1235,-4059,-88,26,3,-375,-66,-688
1,-1169,-1193,-4023,-111,40,38,-375,-66,-688
1,-1136,-1228,-4088,-122,62,64,-375,-66,-688
1,-1122,-1203,-4028,-132,60,78,-375,-66,-688
1,-1104,-1171,-4017,-123,53,82,-375,-66,-688
1,-1094,-1194,-4031,-116,23,63,-375,-66,-688
1,-1075,-1204,-4011,-98,8,25,-375,-66,-688
1,-1068,-1211,-4016,-80,-13,-30,-375,-66,-688
1,-1081,-1228,-4040,-78,-26,-84,-375,-66,-688
1,-1093,-1191,-4047,-73,-37,-132,-375,-66,-688
1,-1089,-1192,-4047,-78,-35,-155,-374,-61,-688
1,-1127,-1182,-4064,-76,-37,-164,-374,-61,-688
1,-1132,-1194,-4048,-90,-15,-139,-374,-61,-688
1,-1148,-1185,-4070,-103,-19,-104,-374,-61,-688
1,-1150,-1187,-4060,-115,-2,-60,-374,-61,-688
1,-1152,-1182,-4067,-117,9,-10,-374,-61,-688
1,-1156,-1163,-4060,-119,15,23,-374,-61,-688
1,-1139,-1168,-4056,-113,11,36,-374,-61,-688
1,-1139,-1185,-4024,-115,9,38,-374,-61,-688
1,-1099,-1167,-4006,-103,8,7,-374,-61,-688
1,-1108,-1173,-4005,-92,3,-13,-374,-61,-688
1,-1092,-1151,-4030,-83,-3,-33,-374,-61,-688
1,-1121,-1150,-4029,-67,-21,-57,-374,-61,-688
1,-1130,-1180,-4025,-50,-21,-70,-374,-61,-688
1,-1113,-1184,-4020,-45,-29,-69,-374,-61,-688
1,-1145,-1197,-4046,-32,-23,-65,-374,-61,-688
1,-1172,-1162,-4065,-30,-8,-43,-374,-59,-693
1,-1168,-1183,-4061,-29,-5,-17,-379,-59,-693
1,-1163,-1177,-4106,-34,8,14,-379,-59,-693
1,-1144,-1202,-4038,-29,18,46,-379,-59,-693
1,-1147,-1191,-3997,-17,25,73,-379,-59,-693
1,-1130,-1193,-4033,-22,29,94,-379,-59,-693
1,-1116,-1184,-4031,-18,31,101,-379,-59,-693
1,-1133,-1224,-4038,-11,36,99,-379,-59,-693
1,-1119,-1232,-4035,-21,32,85,-379,-59,-693
1,-1113,-1205,-4029,-19,36,77,-379,-59,-693
1,-1104,-1208,-4018,-14,25,63,-379,-59,-693
1,-1134,-1217,-4014,-16,36,50,-379,-59,-693
1,-1104,-1217,-4036,-18,26,50,-379,-59,-693
1,-1097,-1198,-4028,-18,17,46,-379,-59,-693
1,-1109,-1207,-4051,-24,11,44,-379,-59,-693
1,-1109,-1201,-4010,-17,3,35,-379,-59,-693
1,-1133,-1191,-4032,-27,1,19,-379,-59,-693
1,-1141,-1262,-4045,-27,1,13,-376,-66,-689
1,-1142,-1243,-4034,-28,7,-1,-376,-66,-689
1,-1162,-1256,-4007,-41,10,-15,-376,-66,-689
1,-1158,-1258,-4057,-54,13,-11,-376,-66,-689
1,-1130,-1232,-4043,-61,15,-7,-376,-66,-689
1,-1116,-1226,-4037,-75,22,-10,-376,-66,-689
1,-1149,-1212,-4009,-82,13,-3,-376,-66,-689
1,-1159,-1235,-3995,-90,14,-2,-376,-66,-689
1,-1143,-1249,-4024,-97,14,2,-376,-66,-689
1,-1143,-1232,-3990,-97,8,-10,-376,-66,-689
1,-1146,-1257,-3998,-92,-2,-25,-376,-66,-689
1,-1145,-1246,-3972,-96,-15,-44,-376,-66,-689
1,-1123,-1236,-4023,-88,-19,-64,-376,-66,-689
1,-1138,-1237,-3969,-87,-23,-83,-376,-66,-689
1,-1140,-1231,-4032,-81,-33,-96,-376,-66,-689
1,-1173,-1232,-4042,-75,-37,-103,-376,-66,-689
1,-1183,-1253,-4003,-81,-38,-108,-376,-61,-688
1,-1176,-1239,-4025,-85,-25,-101,-376,-61,-688
1,-1191,-1239,-4046,-89,-18,-83,-376,-61,-688
1,-1196,-1229,-4081,-85,-11,-61,-376,-61,-688
1,-1183,-1213,-4006,-97,-3,-36,-376,-61,-688
1,-1142,-1217,-4034,-91,4,-22,-376,-61,-688
1,-1169,-1211,-4019,-90,4,3,-376,-61,-688
1,-1160,-1213,-4010,-85,1,10,-376,-61,-688
1,-1160,-1224,-4003,-74,-2,11,-376,-61,-688
1,-1160,-1209,-4011,-69,9,16,-376,-61,-688
1,-1164,-1260,-4020,-54,1,5,-376,-61,-688
1,-1160,-1253,-3992,-29,10,1,-376,-61,-688
1,-1139,-1221,-3992,-31,6,8,-376,-61,-688
1,-1157,-1231,-4030,-24,12,17,-376,-61,-688
1,-1157,-1211,-4018,-18,9,25,-376,-61,-688
1,-1168,-1236,-4013,-6,16,41,-376,-61,-688
1,-1147,-1245,-4011,-1,27,67,-380,-58,-691
1,-1162,-1230,-4010,10,30,88,-380,-58,-691
1,-1152,-1217,-4037,6,39,104,-380,-58,-691
1,-1133,-1236,-4072,11,45,122,-380,-58,-691
1,-1104,-1251,-3980,11,54,136,-380,-58,-691
1,-1108,-1244,-4018,8,65,142,-380,-58,-691
1,-1121,-1267,-4013,4,63,142,-380,-58,-691
1,-1099,-1251,-4018,-2,62,136,-380,-58,-691
1,-1107,-1251,-4010,2,56,125,-380,-58,-691
1,-1103,-1262,-3995,-5,55,113,-380,-58,-691
1,-1105,-1272,-4032,-12,55,94,-380,-58,-691
1,-1111,-1250,-3981,-21,40,77,-380,-58,-691
1,-1126,-1257,-3995,-26,33,52,-380,-58,-691
1,-1106,-1254,-4014,-34,31,35,-380,-58,-691
1,-1099,-1263,-4066,-47,22,15,-380,-58,-691
1,-1115,-1240,-4029,-57,13,-2,-380,-58,-691
1,-1101,-1255,-4021,-71,8,-15,-377,-69,-689
1,-1102,-1276,-4043,-89,2,-33,-377,-69,-689
1,-1103,-1243,-4028,-96,3,-49,-377,-69,-689
1,-1117,-1266,-4062,-109,-8,-67,-377,-69,-689
1,-1114,-1238,-4018,-123,-8,-68,-377,-69,-689
1,-1117,-1235,-4036,-132,-3,-86,-377,-69,-689
1,-1116,-1251,-4028,-143,-11,-81,-377,-69,-689
1,-1131,-1252,-4022,-150,-19,-95,-377,-69,-689
1,-1105,-1220,-4011,-159,-23,-107,-377,-69,-689
1,-1123,-1201,-4081,-150,-29,-114,-377,-69,-689
1,-1117,-1189,-4019,-147,-35,-121,-377,-69,-689
1,-1094,-1214,-4028,-142,-38,-123,-377,-69,-689
1,-1111,-1232,-4008,-140,-39,-138,-377,-69,-689
1,-1128,-1181,-4057,-128,-48,-140,-377,-69,-689
1,-1133,-1193,-4018,-120,-41,-142,-377,-69,-689
1,-1126,-1204,-4040,-107,-44,-136,-377,-69,-689
1,-1162,-1185,-4011,-113,-43,-122,-375,-62,-685
1,-1147,-1182,-4063,-98,-33,-101,-375,-62,-685
1,-1137,-1188,-4021,-92,-27,-75,-375,-62,-685
1,-1181,-1171,-4018,-81,-25,-53,-375,-62,-685
1,-1145,-1144,-4064,-75,-18,-30,-375,-62,-685
1,-1160,-1173,-4028,-66,-8,-10,-375,-62,-685
1,-1162,-1182,-4024,-58,5,7,-375,-62,-685
1,-1155,-1181,-4026,-50,0,22,-375,-62,-685
1,-1110,-1169,-4036,-41,10,22,-375,-62,-685
1,-1133,-1185,-4045,-31,4,31,-375,-62,-685
1,-1118,-1186,-4018,-24,6,33,-375,-62,-685
1,-1130,-1196,-4029,-8,6,38,-375,-62,-685
1,-1146,-1195,-4041,-9,3,32,-375,-62,-685
1,-1146,-1214,-4010,-13,-3,26,-375,-62,-685
1,-1140,-1210,-4014,-13,4,28,-375,-62,-685
1,-1134,-1195,-4057,-15,5,21,-375,-62,-685
1,-1135,-1231,-4033,-24,10,13,-375,-58,-692
1,-1140,-1186,-4061,-29,2,13,-380,-58,-692
1,-1139,-1234,-4028,-31,4,19,-380,-58,-692
1,-1133,-1246,-4025,-40,6,21,-380,-58,-692
1,-1152,-1229,-4033,-47,6,21,-380,-58,-692
1,-1148,-1240,-4028,-56,0,12,-380,-58,-692
1,-1152,-1211,-3998,-58,-5,6,-380,-58,-692
1,-1135,-1219,-4038,-67,1,-10,-380,-58,-692
1,-1122,-1237,-4008,-75,8,-21,-380,-58,-692
1,-1150,-1244,-4020,-79,-3,-26,-380,-58,-692
1,-1158,-1227,-3973,-86,-5,-36,-380,-58,-692
1,-1167,-1222,-4044,-85,-9,-50,-380,-58,-692
1,-1162,-1256,-3980,-85,-11,-50,-380,-58,-692
1,-1164,-1197,-4049,-83,-6,-65,-380,-58,-692
1,-1135,-1229,-4029,-92,-12,-65,-380,-58,-692
1,-1158,-1212,-4067,-93,-13,-70,-380,-58,-692
1,-1184,-1252,-4005,-88,-8,-68,-380,-58,-692
1,-1173,-1201,-4017,-87,-8,-65,-377,-68,-682
1,-1174,-1229,-4009,-87,-2,-53,-377,-68,-682
1,-1169,-1247,-3991,-83,7,-43,-377,-68,-682
1,-1164,-1231,-4013,-79,5,-28,-377,-68,-682
1,-1205,-1203,-4029,-85,6,-14,-377,-68,-682
1,-1160,-1193,-3977,-75,18,-5,-377,-68,-682
1,-1190,-1212,-4016,-68,18,7,-377,-68,-682
1,-1178,-1203,-3985,-64,30,27,-377,-68,-682
1,-1157,-1216,-3998,-54,31,40,-377,-68,-682
1,-1145,-1244,-4002,-41,31,44,-377,-68,-682
1,-1143,-1241,-4046,-43,32,50,-377,-68,-682
1,-1148,-1229,-3974,-33,33,61,-377,-68,-682
1,-1169,-1232,-4029,-14,34,62,-377,-68,-682
1,-1150,-1221,-4048,-17,32,64,-377,-68,-682
1,-1149,-1235,-4057,-6,36,70,-377,-68,-682
1,-1144,-1185,-3998,-3,42,76,-377,-68,-682
1,-1126,-1212,-4038,-5,52,87,-377,-64,-689
1,-1140,-1226,-4047,-1,48,94,-377,-64,-689
1,-1147,-1240,-4008,-2,53,104,-377,-64,-689
1,-1112,-1222,-3989,-5,54,116,-377,-64,-689
1,-1127,-1225,-4004,-5,49,122,-377,-64,-689
1,-1097,-1244,-4005,-5,47,118,-377,-64,-689
1,-1104,-1249,-4003,-8,53,123,-377,-64,-689
1,-1078,-1256,-3975,-12,48,106,-377,-64,-689
1,-1087,-1263,-4009,-17,40,96,-377,-64,-689
1,-1094,-1276,-4013,-19,42,82,-377,-64,-689
1,-1091,-1257,-4037,-23,29,67,-377,-64,-689
1,-1089,-1261,-3993,-29,24,48,-377,-64,-689
1,-1066,-1258,-4065,-36,28,32,-377,-64,-689
1,-1083,-1246,-4054,-45,17,22,-377,-64,-689
1,-1104,-1246,-4008,-51,20,6,-377,-64,-689
1,-1104,-1235,-4039,-55,5,1,-377,-64,-689
1,-1107,-1229,-4058,-71,1,-9,-379,-58,-692
1,-1106,-1246,-4036,-72,1,-26,-379,-58,-692
1,-1098,-1254,-4077,-92,-1,-26,-379,-58,-692
1,-1129,-1245,-4034,-89,-4,-38,-379,-58,-692
1,-1103,-1259,-4042,-98,-7,-43,-379,-58,-692
1,-1097,-1249,-4003,-107,-12,-57,-379,-58,-692
1,-1110,-1229,-4035,-115,-16,-62,-379,-58,-692
1,-1113,-1245,-4063,-108,-21,-71,-379,-58,-692
1,-1125,-1242,-4064,-112,-20,-81,-379,-58,-692
1,-1097,-1234,-4010,-118,-24,-92,-379,-58,-692
1,-1113,-1232,-4056,-113,-31,-96,-379,-58,-692
1,-1110,-1231,-4039,-113,-23,-96,-379,-58,-692
1,-1114,-1228,-4028,-114,-30,-101,-379,-58,-692
1,-1125,-1229,-4029,-106,-27,-101,-379,-58,-692
1,-1125,-1221,-4003,-107,-30,-100,-379,-58,-692
1,-1135,-1230,-4035,-109,-30,-94,-379,-58,-692
1,-1138,-1186,-4010,-102,-31,-88,-377,-66,-687
1,-1168,-1224,-4034,-99,-19,-77,-377,-66,-687
1,-1165,-1186,-4033,-99,-24,-72,-377,-66,-687
1,-1138,-1211,-4052,-87,-18,-60,-377,-66,-687
1,-1168,-1211,-4056,-86,-21,-52,-377,-66,-687
1,-1128,-1225,-3993,-82,-19,-48,-377,-66,-687
1,-1157,-1221,-4023,-78,-15,-43,-377,-66,-687
1,-1157,-1203,-4028,-76,-10,-39,-377,-66,-687
1,-1148,-1191,-4021,-75,-12,-36,-377,-66,-687
1,-1147,-1205,-4016,-71,-11,-40,-377,-66,-687
1,-1153,-1208,-4016,-63,-11,-35,-377,-66,-687
1,-1162,-1202,-4014,-61,-9,-32,-377,-66,-687
1,-1144,-1190,-4019,-59,-13,-33,-377,-66,-687
1,-1147,-1207,-4034,-57,-3,-26,-377,-66,-687
1,-1161,-1212,-4051,-57,-14,-22,-377,-66,-687
1,-1147,-1195,-4024,-57,-9,-26,-377,-66,-687
1,-1167,-1210,-4091,-57,-6,-16,-377,-62,-685
1,-1158,-1230,-4015,-64,-1,-13,-377,-62,-685
1,-1155,-1228,-4027,-62,-3,-15,-377,-62,-685
1,-1157,-1205,-4039,-65,0,-7,-377,-62,-685
1,-1184,-1209,-4023,-68,-7,-8,-377,-62,-685
1,-1162,-1223,-4002,-66,0,-13,-377,-62,-685
1,-1158,-1210,-4014,-66,-2,-12,-377,-62,-685
1,-1158,-1211,-3999,-63,2,-13,-377,-62,-685
1,-1129,-1240,-4008,-62,5,-12,-377,-62,-685
1,-1140,-1210,-4014,-63,-1,-18,-377,-62,-685
1,-1150,-1243,-4010,-62,4,-13,-377,-62,-685
1,-1163,-1187,-4045,-64,2,-14,-377,-62,-685
1,-1152,-1246,-3998,-52,6,-10,-377,-62,-685
1,-1193,-1221,-4036,-55,10,-2,-377,-62,-685
1,-1147,-1226,-3994,-54,13,-3,-377,-62,-685
1,-1166,-1226,-3966,-53,20,10,-377,-62,-685
1,-1175,-1217,-4026,-53,24,20,-377,-62,-685
1,-1141,-1207,-3986,-52,28,28,-380,-59,-692
1,-1157,-1233,-4010,-51,30,37,-380,-59,-692
1,-1156,-1223,-3973,-47,28,43,-380,-59,-692
1,-1141,-1208,-4019,-37,30,44,-380,-59,-692
1,-1186,-1221,-4017,-37,28,45,-380,-59,-692
1,-1140,-1212,-4016,-35,26,42,-380,-59,-692
1,-1123,-1228,-4011,-34,25,42,-380,-59,-692
1,-1152,-1233,-4037,-36,31,46,-380,-59,-692
1,-1150,-1205,-3984,-31,24,40,-380,-59,-692
1,-1136,-1230,-4016,-32,29,40,-380,-59,-692
1,-1150,-1236,-4036,-33,34,45,-380,-59,-692
1,-1139,-1229,-4069,-34,38,47,-380,-59,-692
1,-1136,-1241,-4026,-36,41,59,-380,-59,-692
1,-1138,-1227,-4033,-42,39,61,-380,-59,-692
1,-1123,-1215,-4004,-46,35,62,-380,-59,-692
1,-1111,-1250,-3988,-47,30,59,-380,-59,-692
1,-1103,-1244,-4011,-43,30,54,-375,-70,-688
1,-1089,-1252,-4048,-44,21,48,-375,-70,-688
1,-1118,-1219,-4013,-41,29,34,-375,-70,-688
1,-1104,-1244,-4033,-54,21,22,-375,-70,-688
1,-1124,-1258,-4005,-45,16,15,-375,-70,-688
1,-1116,-1224,-4016,-54,10,7,-375,-70,-688
1,-1118,-1258,-4069,-58,4,-4,-375,-70,-688
1,-1114,-1224,-4054,-57,9,-7,-375,-70,-688
1,-1123,-1229,-4031,-62,9,-8,-375,-70,-688
1,-1131,-1241,-4023,-72,-1,-9,-375,-70,-688
1,-1103,-1218,-4033,-71,5,-8,-375,-70,-688
1,-1130,-1228,-4027,-69,3,-13,-375,-70,-688
1,-1109,-1223,-4059,-75,0,-4,-375,-70,-688
1,-1114,-1250,-4038,-77,-1,-22,-375,-70,-688
1,-1110,-1248,-4056,-78,-4,-24,-375,-70,-688
1,-1112,-1217,-4057,-80,-9,-26,-375,-70,-688
1,-1089,-1229,-3997,-78,-3,-42,-377,-62,-688
1,-1130,-1242,-4059,-79,-8,-45,-377,-62,-688
1,-1100,-1211,-4018,-85,-12,-53,-377,-62,-688
1,-1137,-1211,-4007,-82,-9,-56,-377,-62,-688
1,-1128,-1231,-4060,-81,-20,-60,-377,-62,-688
1,-1135,-1236,-3972,-90,-19,-56,-377,-62,-688
1,-1133,-1224,-4033,-90,-15,-57,-377,-62,-688
1,-1111,-1228,-4051,-89,-18,-57,-377,-62,-688
1,-1146,-1219,-4015,-92,-20,-55,-377,-62,-688
1,-1164,-1204,-4043,-85,-19,-49,-377,-62,-688
1,-1124,-1216,-4013,-84,-21,-58,-377,-62,-688
1,-1149,-1207,-4020,-88,-19,-51,-377,-62,-688
1,-1152,-1209,-4052,-92,-18,-56,-377,-62,-688
1,-1137,-1225,-4027,-87,-15,-59,-377,-62,-688
1,-1148,-1212,-4046,-89,-14,-52,-377,-62,-688
1,-1182,-1190,-4056,-87,-6,-56,-377,-62,-688
1,-1146,-1212,-3997,-85,-11,-48,-381,-61,-693
1,-1163,-1200,-4033,-82,-9,-43,-381,-61,-693
1,-1160,-1226,-4038,-83,-8,-37,-381,-61,-693
1,-1148,-1199,-4014,-76,-4,-34,-381,-61,-693
1,-1166,-1208,-4032,-70,-7,-30,-381,-61,-693
1,-1144,-1208,-3983,-69,-7,-26,-381,-61,-693
1,-1171,-1219,-4018,-65,-9,-25,-381,-61,-693
1,-1140,-1233,-4021,-61,-4,-25,-381,-61,-693
1,-1139,-1202,-4029,-58,-2,-18,-381,-61,-693
1,-1160,-1217,-4021,-56,12,-11,-381,-61,-693
1,-1132,-1200,-4037,-59,8,-6,-381,-61,-693
1,-1151,-1212,-4024,-58,18,-3,-381,-61,-693
1,-1178,-1214,-4032,-52,11,7,-381,-61,-693
1,-1171,-1214,-3997,-50,14,13,-381,-61,-693
1,-1181,-1218,-3994,-52,17,22,-381,-61,-693
1,-1126,-1208,-4010,-54,18,26,-381,-61,-693
1,-1145,-1213,-4032,-45,18,28,-376,-66,-688
1,-1144,-1228,-4008,-45,21,27,-376,-66,-688
1,-1154,-1214,-4022,-45,18,28,-376,-66,-688
1,-1159,-1205,-4047,-39,17,18,-376,-66,-688
1,-1118,-1221,-4031,-39,18,14,-376,-66,-688
1,-1136,-1223,-4022,-46,16,11,-376,-66,-688
1,-1139,-1211,-4032,-47,14,13,-376,-66,-688
1,-1141,-1227,-4027,-39,22,22,-376,-66,-688
1,-1157,-1199,-4045,-53,27,20,-376,-66,-688
1,-1152,-1239,-4039,-53,30,29,-376,-66,-688
1,-1126,-1242,-4010,-49,22,28,-376,-66,-688
1,-1144,-1210,-4022,-52,23,38,-376,-66,-688
1,-1132,-1217,-4049,-52,16,30,-376,-66,-688
1,-1140,-1246,-4027,-55,16,25,-376,-66,-688
1,-1126,-1222,-4019,-53,17,20,-376,-66,-688
1,-1139,-1220,-3996,-51,13,16,-376,-66,-688
1,-1129,-1231,-4021,-48,10,7,-376,-66,-688
1,-1148,-1239,-4020,-51,12,1,-377,-62,-685
1,-1121,-1240,-4025,-54,13,-2,-377,-62,-685
1,-1121,-1274,-4029,-57,13,-3,-377,-62,-685
1,-1166,-1232,-4022,-60,7,3,-377,-62,-685
1,-1143,-1241,-4016,-61,10,5,-377,-62,-685
1,-1146,-1243,-3987,-63,21,5,-377,-62,-685
1,-1140,-1212,-3986,-60,14,11,-377,-62,-685
1,-1106,-1223,-4052,-63,14,18,-377,-62,-685
1,-1132,-1214,-4023,-60,8,13,-377,-62,-685
1,-1155,-1229,-4029,-57,8,8,-377,-62,-685
1,-1106,-1228,-4005,-59,8,5,-377,-62,-685
1,-1130,-1258,-4038,-57,6,1,-377,-62,-685
1,-1120,-1258,-4003,-60,5,-12,-377,-62,-685
1,-1135,-1221,-4031,-57,4,-10,-377,-62,-685
1,-1130,-1225,-4062,-60,-2,-12,-377,-62,-685
1,-1123,-1223,-4031,-56,9,-8,-377,-62,-685
1,-1122,-1237,-4001,-61,5,-5,-379,-58,-691
1,-1126,-1217,-4026,-65,12,6,-379,-58,-691
1,-1142,-1238,-4021,-61,8,2,-379,-58,-691
1,-1124,-1240,-4041,-59,6,12,-379,-58,-691
1,-1096,-1213,-4039,-61,13,11,-379,-58,-691
1,-1128,-1217,-4036,-53,4,13,-379,-58,-691
1,-1101,-1243,-4039,-50,10,5,-379,-58,-691
1,-1121,-1229,-4009,-56,7,1,-379,-58,-691
1,-1121,-1214,-4045,-62,7,-6,-379,-58,-691
1,-1089,-1231,-4044,-59,5,-5,-379,-58,-691
1,-1109,-1220,-4022,-58,9,-11,-379,-58,-691
1,-1159,-1228,-4033,-56,7,-13,-379,-58,-691
1,-1094,-1235,-4035,-58,12,-6,-379,-58,-691
1,-1110,-1241,-4027,-63,8,-2,-379,-58,-691
1,-1126,-1241,-4058,-66,4,-6,-379,-58,-691
1,-1128,-1223,-4012,-66,5,-7,-379,-58,-691
1,-1122,-1224,-4017,-70,0,-7,-378,-68,-690
1,-1115,-1224,-4010,-65,9,-8,-378,-68,-690
1,-1156,-1214,-4045,-65,-1,-15,-378,-68,-690
1,-1133,-1220,-4024,-74,3,-18,-378,-68,-690
1,-1135,-1232,-4040,-74,-2,-24,-378,-68,-690
1,-1136,-1226,-4017,-79,-8,-32,-378,-68,-690
1,-1155,-1213,-4072,-75,0,-32,-378,-68,-690
1,-1150,-1222,-4039,-82,-4,-31,-378,-68,-690
1,-1155,-1212,-4030,-80,-4,-30,-378,-68,-690
1,-1139,-1242,-4033,-86,-6,-34,-378,-68,-690
1,-1142,-1204,-3998,-81,-3,-44,-378,-68,-690
1,-1123,-1207,-4048,-82,-7,-41,-378,-68,-690
1,-1103,-1227,-4019,-78,-12,-41,-378,-68,-690
1,-1139,-1242,-4040,-82,-5,-41,-378,-68,-690
1,-1153,-1225,-4034,-84,-12,-47,-378,-68,-690
1,-1117,-1211,-4027,-85,-4,-43,-378,-68,-690
1,-1146,-1244,-4029,-81,-6,-49,-378,-62,-690
1,-1167,-1194,-4030,-75,-11,-52,-375,-62,-685
1,-1145,-1190,-4028,-78,-5,-39,-375,-62,-685
1,-1143,-1207,-4027,-77,-8,-34,-375,-62,-685
1,-1133,-1204,-4015,-79,-1,-33,-375,-62,-685
1,-1142,-1195,-3998,-76,-1,-22,-375,-62,-685
1,-1126,-1217,-3991,-78,-1,-21,-375,-62,-685
1,-1146,-1201,-4050,-71,-3,-18,-375,-62,-685
1,-1136,-1179,-4024,-63,-3,-18,-375,-62,-685
1,-1142,-1223,-4018,-60,2,-17,-375,-62,-685
1,-1178,-1205,-3998,-65,-4,-18,-375,-62,-685
1,-1145,-1199,-4037,-62,-5,-20,-375,-62,-685
1,-1151,-1198,-4015,-55,0,-20,-375,-62,-685
1,-1145,-1211,-4008,-56,4,-10,-375,-62,-685
1,-1159,-1206,-4038,-52,12,-9,-375,-62,-685
1,-1160,-1206,-4044,-48,6,6,-375,-62,-685
1,-1139,-1221,-4005,-53,18,8,-375,-62,-685
1,-1187,-1217,-4015,-56,14,18,-379,-60,-687
1,-1147,-1257,-3993,-49,25,27,-379,-60,-687
1,-1131,-1248,-4032,-48,19,34,-379,-60,-687
1,-1148,-1228,-3999,-45,20,30,-379,-60,-687
1,-1124,-1200,-4036,-39,16,37,-379,-60,-687
1,-1148,-1220,-4039,-39,27,38,-379,-60,-687
1,-1142,-1208,-4005,-41,28,37,-379,-60,-687
1,-1125,-1242,-3994,-43,25,27,-379,-60,-687
1,-1152,-1200,-4035,-43,21,30,-379,-60,-687
1,-1118,-1201,-4015,-44,23,28,-379,-60,-687
1,-1132,-1243,-4023,-48,20,26,-379,-60,-687
1,-1150,-1244,-4014,-49,22,30,-379,-60,-687
1,-1135,-1224,-4044,-49,22,35,-379,-60,-687
1,-1117,-1252,-4012,-43,26,39,-379,-60,-687
1,-1106,-1216,-4060,-51,24,36,-379,-60,-687
1,-1119,-1200,-4024,-55,24,29,-379,-60,-687
1,-1121,-1243,-3990,-56,23,27,-374,-68,-688
1,-1131,-1215,-4010,-53,15,21,-374,-68,-688
1,-1128,-1213,-4030,-57,14,17,-374,-68,-688
1,-1129,-1239,-4036,-57,19,13,-374,-68,-688
1,-1156,-1250,-4047,-63,11,3,-374,-68,-688
1,-1113,-1211,-4019,-63,10,-4,-374,-68,-688
1,-1111,-1229,-4079,-63,9,-4,-374,-68,-688
1,-1137,-1209,-4034,-63,7,-9,-374,-68,-688
1,-1133,-1226,-4045,-71,4,-6,-374,-68,-688
1,-1118,-1244,-4036,-66,7,-11,-374,-68,-688
1,-1113,-1254,-4025,-67,1,-14,-374,-68,-688
1,-1133,-1228,-4043,-71,8,-12,-374,-68,-688
1,-1133,-1244,-4021,-74,3,-9,-374,-68,-688
1,-1130,-1223,-4003,-76,7,-17,-374,-68,-688
1,-1122,-1210,-4020,-75,1,-10,-374,-68,-688
1,-1113,-1214,-4033,-75,0,-21,-374,-68,-688
1,-1126,-1241,-4017,-78,-4,-23,-380,-62,-686
1,-1105,-1233,-4041,-75,1,-24,-380,-62,-686
1,-1109,-1213,-4033,-71,-6,-30,-380,-62,-686
1,-1124,-1218,-4008,-70,-8,-33,-380,-62,-686
1,-1121,-1232,-4023,-72,-15,-37,-380,-62,-686
1,-1106,-1214,-4015,-73,-10,-33,-380,-62,-686
1,-1138,-1236,-4045,-63,-12,-39,-380,-62,-686
1,-1152,-1240,-4031,-66,-10,-38,-380,-62,-686
1,-1132,-1242,-4023,-66,-9,-38,-380,-62,-686
1,-1119,-1234,-4027,-72,-6,-27,-380,-62,-686
1,-1149,-1231,-4027,-74,-9,-24,-380,-62,-686
1,-1125,-1193,-4039,-67,0,-26,-380,-62,-686
1,-1166,-1214,-4052,-81,2,-19,-380,-62,-686
1,-1164,-1223,-4041,-68,-4,-13,-380,-62,-686
1,-1120,-1235,-4050,-65,2,-16,-380,-62,-686
1,-1141,-1223,-4005,-71,-2,-6,-380,-62,-686
1,-1138,-1224,-4020,-64,-4,-13,-380,-59,-692
1,-1104,-1228,-4053,-63,-1,-16,-379,-59,-692
1,-1138,-1228,-3980,-60,-4,-15,-379,-59,-692
1,-1131,-1214,-4050,-55,-6,-19,-379,-59,-692
1,-1138,-1199,-4036,-58,-1,-25,-379,-59,-692
1,-1139,-1215,-4012,-53,-1,-22,-379,-59,-692
1,-1164,-1224,-4017,-54,2,-17,-379,-59,-692
1,-1149,-1223,-4016,-61,11,-9,-379,-59,-692
1,-1165,-1225,-4008,-65,9,-10,-379,-59,-692
1,-1153,-1213,-4049,-58,9,3,-379,-59,-692
1,-1134,-1242,-4003,-67,12,10,-379,-59,-692
1,-1150,-1216,-4032,-60,9,14,-379,-59,-692
1,-1138,-1219,-4043,-67,14,21,-379,-59,-692
1,-1140,-1220,-4036,-58,12,15,-379,-59,-692
1,-1158,-1221,-4036,-60,6,16,-379,-59,-692
1,-1127,-1236,-4012,-59,7,8,-379,-59,-692
1,-1147,-1240,-4031,-51,7,3,-379,-59,-692
1,-1143,-1236,-4005,-55,8,-4,-376,-69,-687
1,-1150,-1221,-4014,-56,8,-14,-376,-69,-687
1,-1153,-1223,-4027,-57,9,-8,-376,-69,-687
1,-1159,-1225,-4029,-63,10,-9,-376,-69,-687
1,-1134,-1218,-4032,-57,13,-2,-376,-69,-687
1,-1157,-1224,-3988,-61,13,4,-376,-69,-687
1,-1143,-1226,-4021,-62,17,8,-376,-69,-687
1,-1152,-1230,-4046,-65,10,19,-376,-69,-687
1,-1104,-1204,-4031,-69,20,16,-376,-69,-687
1,-1140,-1240,-4018,-66,23,13,-376,-69,-687
1,-1142,-1234,-4013,-65,17,12,-376,-69,-687
1,-1122,-1226,-4017,-62,14,10,-376,-69,-687
1,-1130,-1219,-4052,-58,14,1,-376,-69,-687
1,-1167,-1265,-4053,-57,6,-2,-376,-69,-687
1,-1131,-1223,-4026,-56,10,-3,-376,-69,-687
1,-1134,-1228,-4058,-56,17,-3,-376,-69,-687
1,-1150,-1221,-3981,-63,5,-6,-379,-63,-687
1,-1137,-1248,-4024,-58,6,-1,-379,-63,-687
1,-1128,-1223,-4016,-63,11,-7,-379,-63,-687
1,-1134,-1209,-4041,-63,11,6,-379,-63,-687
1,-1150,-1199,-4039,-61,9,-2,-379,-63,-687
1,-1142,-1213,-4049,-66,10,8,-379,-63,-687
1,-1152,-1213,-3988,-64,-1,4,-379,-63,-687
1,-1126,-1232,-4041,-64,2,3,-379,-63,-687
1,-1094,-1213,-4024,-65,4,-1,-379,-63,-687
1,-1128,-1228,-4054,-64,1,-1,-379,-63,-687
1,-1122,-1215,-4018,-62,0,-13,-379,-63,-687
1,-1135,-1201,-4035,-59,-2,-17,-379,-63,-687
1,-1129,-1227,-4042,-66,1,-17,-379,-63,-687
1,-1127,-1232,-4028,-55,0,-21,-379,-63,-687
1,-1133,-1224,-4014,-62,3,-19,-379,-63,-687
1,-1123,-1200,-4016,-66,3,-16,-379,-63,-687
1,-1138,-1226,-4040,-63,0,-18,-378,-59,-693
1,-1146,-1229,-4040,-70,2,-8,-378,-59,-693
1,-1151,-1206,-4016,-67,5,-7,-378,-59,-693
1,-1145,-1204,-4012,-69,6,-7,-378,-59,-693
1,-1122,-1223,-4036,-65,2,-6,-378,-59,-693
1,-1124,-1222,-4072,-68,0,-5,-378,-59,-693
1,-1130,-1207,-4009,-65,9,-13,-378,-59,-693
1,-1154,-1241,-4050,-61,-3,-12,-378,-59,-693
1,-1138,-1209,-3996,-60,-4,-15,-378,-59,-693
1,-1144,-1232,-4023,-55,-1,-24,-378,-59,-693
1,-1132,-1215,-4039,-65,-5,-23,-378,-59,-693
1,-1148,-1212,-4045,-65,2,-17,-378,-59,-693
1,-1140,-1230,-3992,-58,3,-16,-378,-59,-693
1,-1131,-1212,-4042,-63,3,-11,-378,-59,-693
1,-1166,-1223,-3999,-63,8,-2,-378,-59,-693
1,-1137,-1220,-4003,-59,4,-1,-378,-59,-693
1,-1164,-1207,-4005,-55,13,5,-378,-59,-693
1,-1136,-1200,-3986,-60,12,13,-377,-67,-688
1,-1147,-1223,-4048,-64,18,10,-377,-67,-688
1,-1135,-1230,-4016,-56,6,10,-377,-67,-688
1,-1134,-1231,-4038,-51,12,8,-377,-67,-688
1,-1138,-1247,-4021,-57,2,5,-377,-67,-688
1,-1129,-1231,-3995,-52,4,3,-377,-67,-688
1,-1125,-1227,-4035,-54,6,-11,-377,-67,-688
1,-1156,-1232,-4016,-57,12,-11,-377,-67,-688
1,-1128,-1223,-4071,-56,2,-5,-377,-67,-688
1,-1154,-1242,-4033,-63,10,-7,-377,-67,-688
1,-1135,-1234,-4008,-59,5,-3,-377,-67,-688
1,-1142,-1249,-4027,-65,3,-1,-377,-67,-688
1,-1153,-1246,-3996,-69,10,0,-377,-67,-688
1,-1117,-1241,-4029,-70,1,-2,-377,-67,-688
1,-1133,-1229,-4014,-67,9,5,-377,-67,-688
1,-1141,-1213,-3998,-70,8,-2,-377,-67,-688
1,-1138,-1236,-3993,-66,8,-2,-377,-61,-685
1,-1133,-1236,-4050,-70,0,-13,-377,-61,-685
1,-1132,-1235,-4034,-73,2,-25,-377,-61,-685
1,-1135,-1250,-4007,-71,0,-18,-377,-61,-685
1,-1117,-1211,-4033,-74,1,-30,-377,-61,-685
1,-1147,-1205,-4023,-76,0,-31,-377,-61,-685
1,-1140,-1237,-4022,-73,7,-30,-377,-61,-685
1,-1143,-1221,-4104,-73,1,-25,-377,-61,-685
1,-1153,-1233,-4061,-77,-5,-18,-377,-61,-685
1,-1139,-1240,-4087,-70,3,-17,-377,-61,-685
1,-1130,-1224,-4025,-74,6,-13,-377,-61,-685
1,-1145,-1226,-4044,-76,6,-10,-377,-61,-685
1,-1138,-1218,-4028,-69,9,-8,-377,-61,-685
1,-1148,-1240,-4054,-66,4,-10,-377,-61,-685
1,-1140,-1207,-4034,-65,11,-7,-377,-61,-685
1,-1137,-1226,-4048,-68,6,-9,-377,-61,-685
1,-1153,-1213,-4011,-62,2,-11,-381,-60,-692
1,-1152,-1253,-4048,-62,6,-6,-381,-60,-692
1,-1136,-1211,-4019,-66,13,-12,-381,-60,-692
1,-1125,-1221,-4033,-60,8,-4,-381,-60,-692
1,-1137,-1226,-4023,-64,9,3,-381,-60,-692
1,-1130,-1213,-4019,-66,4,5,-381,-60,-692
1,-1153,-1217,-4034,-60,12,3,-381,-60,-692
1,-1125,-1194,-4043,-66,11,10,-381,-60,-692
1,-1121,-1204,-4065,-61,13,5,-381,-60,-692
1,-1122,-1200,-4040,-58,11,5,-381,-60,-692
1,-1124,-1243,-4014,-61,11,9,-381,-60,-692
1,-1135,-1239,-4018,-64,9,6,-381,-60,-692
1,-1117,-1201,-4048,-56,12,-4,-381,-60,-692
1,-1131,-1245,-3986,-60,11,-3,-381,-60,-692
1,-1132,-1205,-4075,-60,13,1,-381,-60,-692
1,-1110,-1194,-4079,-56,7,2,-381,-60,-692
1,-1121,-1218,-4057,-60,11,1,-381,-60,-692
1,-1147,-1230,-4019,-64,10,3,-375,-67,-683
1,-1128,-1247,-4024,-57,11,0,-375,-67,-683
1,-1137,-1220,-3996,-62,12,6,-375,-67,-683
1,-1133,-1226,-4037,-65,13,5,-375,-67,-683
1,-1140,-1192,-4043,-63,5,5,-375,-67,-683
1,-1126,-1212,-4008,-58,5,1,-375,-67,-683
1,-1148,-1240,-4016,-61,6,4,-375,-67,-683
1,-1135,-1243,-4005,-58,11,3,-375,-67,-683
1,-1129,-1220,-4027,-51,8,2,-375,-67,-683
1,-1122,-1227,-3985,-49,13,-3,-375,-67,-683
1,-1131,-1231,-4014,-52,7,-3,-375,-67,-683
1,-1136,-1238,-4021,-54,5,-3,-375,-67,-683
1,-1121,-1236,-4052,-52,7,-8,-375,-67,-683
1,-1156,-1211,-4014,-55,8,5,-375,-67,-683
1,-1120,-1200,-4077,-58,7,-1,-375,-67,-683
1,-1135,-1239,-4036,-59,0,4,-375,-67,-683
1,-1127,-1236,-4012,-54,3,4,-376,-63,-688
1,-1138,-1220,-4026,-58,9,11,-376,-63,-688
1,-1119,-1250,-4037,-57,2,3,-376,-63,-688
1,-1141,-1202,-4008,-58,8,2,-376,-63,-688
1,-1110,-1210,-4011,-61,10,0,-376,-63,-688
1,-1129,-1262,-3976,-62,1,-6,-376,-63,-688
1,-1103,-1260,-4043,-58,1,-9,-376,-63,-688
1,-1134,-1235,-4072,-59,2,-18,-376,-63,-688
1,-1124,-1245,-4017,-59,2,-27,-376,-63,-688
1,-1130,-1230,-4077,-60,-4,-17,-376,-63,-688
1,-1138,-1234,-4037,-63,0,-25,-376,-63,-688
1,-1127,-1237,-4024,-69,1,-24,-376,-63,-688
1,-1156,-1215,-4007,-66,-4,-18,-376,-63,-688
1,-1140,-1236,-4004,-72,1,-21,-376,-63,-688
1,-1132,-1230,-4032,-74,6,-17,-376,-63,-688
1,-1097,-1231,-3982,-76,-4,-21,-376,-63,-688
1,-1119,-1218,-4010,-72,-5,-19,-378,-60,-692
1,-1164,-1229,-3988,-72,3,-15,-378,-60,-692
1,-1135,-1205,-4014,-73,-3,-20,-378,-60,-692
1,-1137,-1254,-4004,-68,3,-20,-378,-60,-692
1,-1142,-1244,-4017,-67,-6,-28,-378,-60,-692
1,-1132,-1238,-4034,-71,-5,-24,-378,-60,-692
1,-1119,-1214,-4011,-68,-7,-31,-378,-60,-692
1,-1131,-1211,-4027,-68,-1,-25,-378,-60,-692
1,-1149,-1207,-4010,-64,3,-26,-378,-60,-692
1,-1134,-1197,-4020,-72,0,-19,-378,-60,-692
1,-1141,-1196,-4031,-63,2,-9,-378,-60,-692
1,-1158,-1213,-3992,-69,5,-7,-378,-60,-692
1,-1139,-1228,-4014,-67,9,-2,-378,-60,-692
1,-1137,-1235,-4031,-69,17,1,-378,-60,-692
1,-1134,-1208,-4039,-71,9,5,-378,-60,-692
1,-1147,-1232,-4021,-66,13,5,-378,-60,-692
1,-1151,-1210,-4044,-62,8,2,-378,-60,-692
1,-1135,-1211,-3992,-66,19,0,-377,-67,-686
1,-1128,-1233,-4049,-54,4,-1,-377,-67,-686
1,-1143,-1224,-4006,-59,9,-5,-377,-67,-686
1,-1170,-1225,-4031,-54,9,-6,-377,-67,-686
1,-1146,-1226,-4004,-60,11,-3,-377,-67,-686
1,-1139,-1217,-4052,-55,6,-7,-377,-67,-686
1,-1121,-1227,-4010,-59,10,3,-377,-67,-686
1,-1128,-1219,-4051,-55,9,2,-377,-67,-686
1,-1122,-1231,-4039,-59,2,4,-377,-67,-686
1,-1132,-1228,-4011,-66,6,5,-377,-67,-686
1,-1138,-1224,-3999,-58,20,7,-377,-67,-686
1,-1141,-1222,-4016,-60,12,5,-377,-67,-686
1,-1140,-1207,-4036,-57,15,7,-377,-67,-686
1,-1130,-1210,-4036,-60,13,8,-377,-67,-686
1,-1112,-1236,-4020,-60,0,-1,-377,-67,-686
1,-1153,-1227,-4026,-70,-2,-6,-377,-67,-686
1,-1143,-1239,-4023,-67,6,-2,-379,-61,-684
1,-1134,-1213,-3998,-63,1,-5,-379,-61,-684
1,-1121,-1231,-4026,-68,3,-10,-379,-61,-684
1,-1137,-1228,-4015,-64,0,-8,-379,-61,-684
1,-1121,-1196,-4029,-68,3,-11,-379,-61,-684
1,-1121,-1235,-4026,-65,4,-11,-379,-61,-684
1,-1146,-1223,-3985,-67,-2,-16,-379,-61,-684
1,-1120,-1221,-4048,-66,3,-12,-379,-61,-684
1,-1141,-1223,-4001,-64,-2,-12,-379,-61,-684
1,-1163,-1215,-4001,-62,0,-5,-379,-61,-684
1,-1136,-1230,-4008,-74,-2,-11,-379,-61,-684
1,-1127,-1235,-4008,-72,6,-9,-379,-61,-684
1,-1138,-1226,-4027,-68,1,-4,-379,-61,-684
1,-1142,-1228,-4018,-69,2,-5,-379,-61,-684
1,-1138,-1222,-4041,-75,6,-10,-379,-61,-684
1,-1142,-1208,-4036,-64,-1,-6,-379,-61,-684
1,-1144,-1208,-4039,-66,7,-6,-379,-58,-693
1,-1150,-1232,-3995,-61,2,-9,-380,-58,-693
1,-1116,-1210,-4047,-63,1,-3,-380,-58,-693
1,-1125,-1211,-4046,-65,2,-14,-380,-58,-693
1,-1153,-1211,-4034,-70,3,-4,-380,-58,-693
1,-1130,-1210,-3998,-63,6,-3,-380,-58,-693
1,-1120,-1207,-4012,-59,12,3,-380,-58,-693
1,-1139,-1233,-4017,-58,5,-1,-380,-58,-693
1,-1161,-1190,-3991,-63,13,2,-380,-58,-693
1,-1133,-1215,-4030,-58,14,4,-380,-58,-693
1,-1112,-1191,-4019,-59,9,7,-380,-58,-693
1,-1155,-1225,-4021,-56,13,9,-380,-58,-693
1,-1138,-1223,-4031,-52,10,8,-380,-58,-693
1,-1107,-1235,-4022,-56,10,10,-380,-58,-693
1,-1132,-1222,-4010,-55,13,11,-380,-58,-693
1,-1130,-1205,-4051,-53,12,6,-380,-58,-693
1,-1138,-1228,-4034,-56,11,4,-380,-58,-693
1,-1140,-1223,-4023,-51,7,-3,-377,-67,-688
1,-1140,-1217,-3994,-57,14,-1,-377,-67,-688
1,-1145,-1251,-4015,-48,4,-1,-377,-67,-688
1,-1132,-1228,-4033,-58,6,-6,-377,-67,-688
1,-1129,-1254,-4012,-54,10,1,-377,-67,-688
1,-1157,-1214,-4058,-54,9,0,-377,-67,-688
1,-1141,-1209,-4018,-63,14,2,-377,-67,-688
1,-1105,-1231,-4036,-60,12,12,-377,-67,-688
1,-1122,-1232,-3994,-57,8,8,-377,-67,-688
1,-1125,-1237,-4040,-64,11,10,-377,-67,-688
1,-1149,-1227,-4035,-63,7,6,-377,-67,-688
1,-1142,-1261,-4025,-55,2,4,-377,-67,-688
1,-1135,-1239,-4018,-57,13,4,-377,-67,-688
1,-1126,-1218,-4057,-56,4,-3,-377,-67,-688
1,-1148,-1222,-4019,-65,1,-8,-377,-67,-688
1,-1132,-1212,-4067,-61,-2,-9,-377,-67,-688
1,-1133,-1245,-4007,-62,6,-7,-376,-63,-686
1,-1122,-1265,-4009,-58,4,-7,-376,-63,-686
1,-1132,-1241,-4037,-57,8,-2,-376,-63,-686
1,-1121,-1225,-4038,-62,11,-9,-376,-63,-686
1,-1135,-1244,-4004,-66,9,-3,-376,-63,-686
1,-1154,-1257,-4016,-71,0,-2,-376,-63,-686
1,-1121,-1213,-4021,-67,0,-7,-376,-63,-686
1,-1136,-1221,-4001,-67,8,-10,-376,-63,-686
1,-1142,-1242,-4013,-64,9,-7,-376,-63,-686
1,-1123,-1242,-4011,-66,5,-6,-376,-63,-686
1,-1125,-1248,-4035,-65,5,-8,-376,-63,-686
1,-1145,-1251,-4030,-70,-3,-15,-376,-63,-686
1,-1131,-1218,-3974,-74,2,-15,-376,-63,-686
1,-1118,-1232,-4037,-67,5,-22,-376,-63,-686
1,-1128,-1207,-4032,-78,-1,-21,-376,-63,-686
1,-1120,-1206,-3987,-78,1,-23,-376,-63,-686
1,-1151,-1210,-4024,-71,-5,-26,-376,-63,-686
1,-1137,-1202,-4025,-75,-2,-28,-376,-63,-686
1,-1157,-1239,-4022,-77,-2,-21,-376,-63,-686
1,-1129,-1205,-3996,-71,3,-29,-376,-63,-686
1,-1150,-1218,-4000,-83,-1,-25,-376,-63,-686
1,-1120,-1214,-4033,-83,-3,-26,-376,-63,-686
1,-1152,-1207,-4007,-75,2,-20,-376,-63,-686
1,-1129,-1181,-4025,-76,1,-20,-376,-63,-686
1,-1142,-1202,-4016,-78,0,-22,-376,-63,-686
1,-1146,-1218,-4026,-72,5,-26,-376,-63,-686
1,-1128,-1226,-4062,-66,6,-13,-376,-63,-686
1,-1147,-1214,-4043,-72,-6,-19,-376,-63,-686
1,-1116,-1214,-4075,-66,3,-18,-376,-63,-686
1,-1134,-1186,-4021,-65,8,-12,-376,-63,-686
1,-1143,-1208,-4036,-64,6,-10,-376,-63,-686
1,-1152,-1246,-4030,-65,4,-6,-376,-63,-686
1,-1123,-1225,-4033,-58,13,-3,-376,-63,-686
1,-1139,-1207,-3986,-61,10,-2,-374,-69,-691
1,-1156,-1239,-4048,-56,10,6,-374,-69,-691
1,-1152,-1222,-4008,-53,12,12,-374,-69,-691
1,-1135,-1224,-4054,-53,13,13,-374,-69,-691
1,-1167,-1239,-4004,-51,19,22,-374,-69,-691
1,-1111,-1223,-4056,-49,16,15,-374,-69,-691
1,-1155,-1220,-4031,-46,16,21,-374,-69,-691
1,-1114,-1233,-4008,-46,14,19,-374,-69,-691
1,-1138,-1215,-3992,-49,14,20,-374,-69,-691
1,-1141,-1217,-4041,-43,16,22,-374,-69,-691
1,-1138,-1222,-4027,-46,13,14,-374,-69,-691
1,-1108,-1212,-4017,-44,15,8,-374,-69,-691
1,-1114,-1225,-4019,-50,8,9,-374,-69,-691
1,-1107,-1226,-4021,-50,17,10,-374,-69,-691
1,-1121,-1241,-3999,-49,11,7,-374,-69,-691
1,-1131,-1223,-4009,-56,9,3,-374,-69,-691
1,-1125,-1220,-4021,-56,9,5,-377,-63,-685
1,-1104,-1222,-4042,-62,5,0,-377,-63,-685
1,-1130,-1217,-4036,-62,6,3,-377,-63,-685
1,-1137,-1221,-4013,-58,3,-1,-377,-63,-685
1,-1105,-1237,-4016,-61,13,-7,-377,-63,-685
1,-1121,-1226,-4029,-63,1,-7,-377,-63,-685
1,-1127,-1219,-3996,-73,-2,-14,-377,-63,-685
1,-1124,-1245,-4025,-65,8,-23,-377,-63,-685
1,-1142,-1210,-4005,-71,-3,-20,-377,-63,-685
1,-1147,-1224,-4030,-69,4,-24,-377,-63,-685
1,-1125,-1221,-4027,-64,-6,-27,-377,-63,-685
1,-1145,-1238,-4024,-68,2,-25,-377,-63,-685
1,-1159,-1225,-4001,-77,-3,-27,-377,-63,-685
1,-1134,-1219,-4051,-74,-4,-28,-377,-63,-685
1,-1132,-1223,-4027,-65,-5,-21,-377,-63,-685
1,-1146,-1218,-4018,-72,-6,-18,-377,-63,-685
1,-1133,-1227,-4016,-72,-1,-22,-380,-63,-692
1,-1144,-1193,-4033,-64,1,-12,-380,-63,-692
1,-1122,-1229,-3979,-67,3,-13,-380,-63,-692
1,-1138,-1231,-3972,-68,2,-14,-380,-63,-692
1,-1131,-1223,-4043,-71,-4,-7,-380,-63,-692
1,-1118,-1223,-4047,-66,-1,-12,-380,-63,-692
1,-1130,-1206,-4054,-66,5,-5,-380,-63,-692
1,-1155,-1228,-4046,-63,-3,-11,-380,-63,-692
1,-1140,-1233,-4041,-61,2,-10,-380,-63,-692
1,-1163,-1227,-4031,-60,4,-4,-380,-63,-692
1,-1140,-1220,-3995,-65,6,-3,-380,-63,-692
1,-1130,-1235,-4044,-62,3,-5,-380,-63,-692
1,-1168,-1210,-4016,-58,11,0,-380,-63,-692
1,-1144,-1206,-4031,-61,5,2,-380,-63,-692
1,-1125,-1232,-4052,-53,10,4,-380,-63,-692
1,-1095,-1229,-4049,-60,9,3,-380,-63,-692
1,-1140,-1207,-4042,-64,14,10,-380,-63,-692
1,-1131,-1196,-4029,-58,16,8,-378,-70,-691
1,-1131,-1223,-3995,-56,10,7,-378,-70,-691
1,-1138,-1202,-4052,-55,10,7,-378,-70,-691
1,-1134,-1232,-4021,-55,15,7,-378,-70,-691
1,-1135,-1224,-3959,-54,8,2,-378,-70,-691
1,-1116,-1213,-3996,-56,8,-1,-378,-70,-691
1,-1147,-1230,-4066,-56,4,2,-378,-70,-691
1,-1142,-1197,-4017,-63,7,4,-378,-70,-691
1,-1108,-1226,-4030,-66,6,-3,-378,-70,-691
1,-1132,-1230,-4034,-66,11,2,-378,-70,-691
1,-1113,-1227,-4006,-62,16,-4,-378,-70,-691
1,-1155,-1212,-4031,-68,12,-6,-378,-70,-691
1,-1119,-1205,-4019,-64,7,-6,-378,-70,-691
1,-1125,-1254,-4024,-67,3,-7,-378,-70,-691
1,-1095,-1217,-4006,-60,11,-3,-378,-70,-691
1,-1112,-1228,-4034,-64,6,-4,-378,-70,-691
1,-1135,-1224,-4004,-69,7,-13,-376,-62,-685
1,-1118,-1214,-4077,-71,0,-19,-376,-62,-685
1,-1124,-1222,-4023,-66,0,-15,-376,-62,-685
1,-1125,-1253,-4033,-69,0,-21,-376,-62,-685
1,-1123,-1232,-4013,-66,1,-14,-376,-62,-685
1,-1145,-1214,-4044,-66,1,-18,-376,-62,-685
1,-1145,-1246,-4051,-67,1,-18,-376,-62,-685
1,-1163,-1221,-4058,-77,3,-14,-376,-62,-685
1,-1137,-1243,-4049,-70,-8,-13,-376,-62,-685
1,-1134,-1213,-4038,-63,-1,-17,-376,-62,-685
1,-1157,-1235,-3998,-65,1,-16,-376,-62,-685
1,-1124,-1218,-4021,-66,1,-16,-376,-62,-685
1,-1135,-1200,-4029,-68,4,-14,-376,-62,-685
1,-1162,-1229,-4043,-63,1,-10,-376,-62,-685
1,-1120,-1223,-4027,-68,3,-16,-376,-62,-685
1,-1143,-1184,-4018,-63,7,-7,-376,-62,-685
1,-1135,-1218,-3989,-61,-1,-12,-382,-57,-692
1,-1117,-1222,-4029,-65,5,-11,-382,-57,-692
1,-1166,-1203,-4015,-63,7,-12,-382,-57,-692
1,-1143,-1227,-4041,-65,5,-5,-382,-57,-692
1,-1124,-1232,-3992,-64,-1,-8,-382,-57,-692
1,-1114,-1217,-4038,-64,-1,-2,-382,-57,-692
1,-1120,-1217,-4054,-60,2,-8,-382,-57,-692
1,-1120,-1237,-4006,-59,7,-10,-382,-57,-692
1,-1168,-1200,-3991,-59,-1,-10,-382,-57,-692
1,-1134,-1215,-4029,-57,3,-5,-382,-57,-692
1,-1145,-1252,-4006,-57,-1,-10,-382,-57,-692
1,-1142,-1200,-4005,-60,7,-7,-382,-57,-692
1,-1116,-1223,-4011,-60,4,-3,-382,-57,-692
1,-1135,-1218,-3999,-59,3,-7,-382,-57,-692
1,-1146,-1214,-4006,-65,15,-1,-382,-57,-692
1,-1133,-1224,-3988,-63,3,-2,-382,-57,-692
1,-1136,-1218,-4011,-62,12,0,-382,-57,-692
1,-1143,-1239,-4046,-63,3,-3,-376,-68,-689
1,-1142,-1221,-4057,-60,9,-2,-376,-68,-689
1,-1137,-1208,-4016,-62,-1,-9,-376,-68,-689
1,-1160,-1221,-4100,-60,0,-6,-376,-68,-689
1,-1144,-1219,-4000,-58,11,-15,-376,-68,-689
1,-1110,-1216,-3950,-64,4,-6,-376,-68,-689
1,-1114,-1237,-4004,-60,7,-9,-376,-68,-689
1,-1150,-1231,-4039,-56,2,-7,-376,-68,-689
1,-1162,-1204,-3980,-55,6,-5,-376,-68,-689
1,-1120,-1198,-4031,-65,6,2,-376,-68,-689
1,-1140,-1248,-4023,-58,6,2,-376,-68,-689
1,-1152,-1219,-4029,-66,7,10,-376,-68,-689
1,-1149,-1243,-4028,-59,8,-1,-376,-68,-689
1,-1142,-1227,-4003,-61,-2,4,-376,-68,-689
1,-1155,-1230,-4024,-64,1,5,-376,-68,-689
1,-1161,-1220,-4009,-62,14,8,-376,-68,-689
1,-1108,-1232,-3999,-56,11,0,-374,-63,-687
1,-1136,-1240,-4018,-54,13,-7,-374,-63,-687
1,-1143,-1248,-4007,-57,0,-2,-374,-63,-687
1,-1145,-1229,-4009,-63,3,-5,-374,-63,-687
1,-1151,-1214,-4028,-57,6,-7,-374,-63,-687
1,-1162,-1198,-3998,-58,9,-5,-374,-63,-687
1,-1143,-1262,-4026,-63,9,-6,-374,-63,-687
1,-1141,-1230,-4005,-67,8,-2,-374,-63,-687
1,-1145,-1222,-4034,-62,5,2,-374,-63,-687
1,-1137,-1225,-4011,-64,3,2,-374,-63,-687
1,-1145,-1229,-3988,-54,8,2,-374,-63,-687
1,-1132,-1216,-4034,-66,4,-2,-374,-63,-687
1,-1113,-1238,-4024,-68,5,-4,-374,-63,-687
1,-1152,-1210,-4006,-63,0,-3,-374,-63,-687
1,-1136,-1224,-4027,-71,3,-14,-374,-63,-687
1,-1124,-1218,-4002,-63,3,-7,-374,-63,-687
1,-1133,-1185,-4060,-62,1,-10,-374,-58,-687
1,-1138,-1213,-4023,-72,-4,-13,-383,-58,-687
1,-1116,-1226,-4012,-59,-6,-18,-383,-58,-687
1,-1141,-1235,-4036,-66,-1,-16,-383,-58,-687
1,-1125,-1236,-4025,-68,-1,-14,-383,-58,-687
1,-1116,-1205,-4017,-64,0,-18,-383,-58,-687
1,-1140,-1221,-4041,-62,4,-13,-383,-58,-687
1,-1099,-1220,-4029,-68,5,-12,-383,-58,-687
1,-1139,-1203,-4024,-68,6,-12,-383,-58,-687
1,-1133,-1230,-4010,-66,5,-10,-383,-58,-687
1,-1143,-1209,-4016,-66,6,-7,-383,-58,-687
1,-1129,-1216,-4042,-69,3,-14,-383,-58,-687
1,-1141,-1225,-4028,-68,11,-5,-383,-58,-687
1,-1168,-1211,-4013,-60,12,-7,-383,-58,-687
1,-1131,-1217,-4037,-69,-3,-8,-383,-58,-687
1,-1126,-1217,-4035,-60,10,-5,-383,-58,-687
1,-1127,-1218,-4014,-66,5,-1,-383,-58,-687
1,-1144,-1202,-4042,-54,10,-5,-375,-67,-690
1,-1145,-1208,-4024,-64,1,-3,-375,-67,-690
1,-1127,-1231,-4026,-61,6,-4,-375,-67,-690
1,-1121,-1225,-4057,-55,8,-6,-375,-67,-690
1,-1154,-1199,-4018,-65,5,-8,-375,-67,-690
1,-1129,-1210,-3984,-53,7,0,-375,-67,-690
1,-1134,-1231,-4021,-59,3,1,-375,-67,-690
1,-1118,-1216,-4028,-65,5,1,-375,-67,-690
1,-1146,-1193,-4048,-59,10,0,-375,-67,-690
1,-1153,-1244,-4040,-63,3,2,-375,-67,-690
1,-1125,-1249,-4019,-62,4,1,-375,-67,-690
1,-1130,-1217,-4053,-58,-1,-3,-375,-67,-690
1,-1164,-1232,-4085,-65,5,-3,-375,-67,-690
1,-1135,-1254,-4000,-59,9,1,-375,-67,-690
1,-1154,-1205,-4038,-60,10,-5,-375,-67,-690
1,-1119,-1215,-4011,-58,10,-1,-375,-67,-690
1,-1108,-1219,-3978,-62,7,-6,-377,-64,-689
1,-1135,-1214,-4033,-60,11,-3,-377,-64,-689
1,-1130,-1226,-4027,-63,4,-7,-377,-64,-689
1,-1152,-1227,-4011,-64,8,-3,-377,-64,-689
1,-1125,-1217,-4016,-65,-2,-8,-377,-64,-689
1,-1125,-1214,-4058,-62,9,-4,-377,-64,-689
1,-1142,-1234,-4013,-64,5,0,-377,-64,-689
1,-1125,-1223,-4022,-68,1,-5,-377,-64,-689
1,-1137,-1230,-4004,-60,6,-6,-377,-64,-689
1,-1159,-1207,-4041,-62,7,-2,-377,-64,-689
1,-1147,-1209,-4043,-66,5,-7,-377,-64,-689
1,-1150,-1222,-4016,-61,4,-8,-377,-64,-689
1,-1144,-1234,-4006,-63,4,-5,-377,-64,-689
1,-1137,-1226,-4048,-62,4,-4,-377,-64,-689
1,-1114,-1217,-4044,-60,7,-5,-377,-64,-689
1,-1142,-1227,-3995,-58,9,-1,-377,-64,-689
1,-1129,-1241,-4025,-63,8,5,-377,-64,-689
1,-1143,-1220,-3977,-62,3,-9,-377,-64,-689
1,-1138,-1207,-4049,-60,5,-2,-377,-64,-689
1,-1128,-1217,-4046,-70,4,-3,-377,-64,-689
1,-1144,-1213,-4025,-63,2,-3,-377,-64,-689
1,-1142,-1224,-3997,-68,3,-4,-377,-64,-689
1,-1128,-1228,-4007,-68,6,-11,-377,-64,-689
1,-1135,-1230,-4009,-63,6,-10,-377,-64,-689
1,-1137,-1237,-4020,-65,4,-7,-377,-64,-689
1,-1128,-1211,-4003,-70,8,-6,-377,-64,-689
1,-1125,-1226,-4024,-66,4,-12,-377,-64,-689
1,-1133,-1235,-4025,-68,-1,-12,-377,-64,-689
1,-1145,-1245,-4030,-61,4,-10,-377,-64,-689
1,-1155,-1230,-4027,-70,2,-14,-377,-64,-689
1,-1164,-1208,-4007,-69,3,-16,-377,-64,-689
1,-1152,-1214,-4041,-62,2,-8,-377,-64,-689
1,-1118,-1233,-4029,-69,9,-13,-377,-64,-689
1,-1133,-1202,-4038,-73,6,-18,-376,-67,-688
1,-1129,-1243,-3990,-69,5,-14,-376,-67,-688
1,-1143,-1229,-4047,-67,9,-12,-376,-67,-688
1,-1147,-1222,-3980,-64,4,-10,-376,-67,-688
1,-1164,-1231,-4041,-71,9,-16,-376,-67,-688
1,-1143,-1217,-4034,-67,4,-15,-376,-67,-688
1,-1130,-1220,-3987,-62,-1,-16,-376,-67,-688
1,-1120,-1229,-4034,-65,8,-13,-376,-67,-688
1,-1139,-1225,-4043,-60,0,-8,-376,-67,-688
1,-1136,-1225,-4027,-58,6,-11,-376,-67,-688
1,-1139,-1217,-4029,-66,10,-12,-376,-67,-688
1,-1142,-1200,-4015,-59,7,-7,-376,-67,-688
1,-1149,-1244,-4021,-61,6,-3,-376,-67,-688
1,-1130,-1211,-4038,-61,6,-2,-376,-67,-688
1,-1145,-1200,-4025,-64,11,-2,-376,-67,-688
1,-1126,-1192,-4021,-66,10,-3,-376,-67,-688
1,-1138,-1198,-4025,-60,9,3,-376,-61,-688
1,-1136,-1223,-4025,-59,7,4,-376,-61,-688
1,-1147,-1235,-4081,-56,13,6,-376,-61,-688
1,-1122,-1229,-3986,-55,10,1,-376,-61,-688
1,-1124,-1217,-4020,-58,8,0,-376,-61,-688
1,-1146,-1236,-3996,-57,11,9,-376,-61,-688
1,-1117,-1228,-4034,-56,3,-3,-376,-61,-688
1,-1125,-1227,-4016,-60,11,-2,-376,-61,-688
1,-1115,-1224,-4019,-56,5,-2,-376,-61,-688
1,-1126,-1186,-3985,-55,4,3,-376,-61,-688
1,-1140,-1206,-4048,-62,7,-5,-376,-61,-688
1,-1127,-1229,-4026,-61,7,0,-376,-61,-688
1,-1139,-1246,-4020,-60,1,-5,-376,-61,-688
1,-1142,-1223,-4048,-62,10,0,-376,-61,-688
1,-1148,-1231,-4023,-59,5,1,-376,-61,-688
1,-1121,-1230,-4029,-63,9,-5,-376,-61,-688
1,-1146,-1207,-4022,-62,4,-3,-376,-61,-688
1,-1159,-1208,-4011,-65,3,-5,-380,-59,-690
1,-1137,-1231,-4003,-66,7,-2,-380,-59,-690
1,-1145,-1247,-4055,-57,2,-6,-380,-59,-690
1,-1145,-1236,-4027,-65,9,-6,-380,-59,-690
1,-1148,-1207,-4021,-62,6,-11,-380,-59,-690
1,-1129,-1209,-4013,-65,6,-8,-380,-59,-690
1,-1133,-1233,-4058,-67,2,-13,-380,-59,-690
1,-1125,-1211,-4074,-64,9,-12,-380,-59,-690
1,-1118,-1231,-4033,-64,6,-6,-380,-59,-690
1,-1144,-1243,-4009,-74,6,-12,-380,-59,-690
1,-1152,-1216,-4019,-66,-3,-12,-380,-59,-690
1,-1138,-1204,-4049,-65,7,-10,-380,-59,-690
1,-1141,-1238,-4019,-61,1,-15,-380,-59,-690
1,-1103,-1195,-4000,-71,1,-12,-380,-59,-690
1,-1137,-1246,-4033,-69,10,-10,-380,-59,-690
1,-1161,-1233,-4042,-67,-2,-15,-380,-59,-690
1,-1139,-1240,-4040,-65,4,-13,-376,-67,-689
1,-1125,-1215,-4015,-68,1,-19,-376,-67,-689
1,-1145,-1207,-4038,-65,-2,-12,-376,-67,-689
1,-1132,-1199,-4040,-64,-3,-15,-376,-67,-689
1,-1146,-1248,-4006,-63,-1,-12,-376,-67,-689
1,-1141,-1228,-4041,-69,6,-7,-376,-67,-689
1,-1156,-1211,-3995,-64,3,-9,-376,-67,-689
1,-1151,-1215,-4013,-64,-3,-1,-376,-67,-689
1,-1134,-1206,-3998,-56,10,-5,-376,-67,-689
1,-1124,-1232,-4040,-60,8,-8,-376,-67,-689
1,-1144,-1227,-3996,-59,6,-2,-376,-67,-689
1,-1142,-1227,-3990,-56,3,-1,-376,-67,-689
1,-1152,-1220,-4037,-63,6,-4,-376,-67,-689
1,-1128,-1243,-4056,-61,8,-1,-376,-67,-689
1,-1140,-1228,-4068,-58,6,-2,-376,-67,-689
1,-1130,-1229,-4034,-57,-2,5,-376,-67,-689
1,-1116,-1201,-4029,-53,14,-2,-375,-63,-689
1,-1121,-1216,-4024,-57,7,-3,-375,-63,-689
1,-1145,-1223,-4048,-57,11,4,-375,-63,-689
1,-1145,-1200,-4022,-60,14,1,-375,-63,-689
1,-1124,-1201,-4037,-55,6,2,-375,-63,-689
1,-1136,-1220,-4069,-57,8,-1,-375,-63,-689
1,-1139,-1192,-4064,-59,4,1,-375,-63,-689
1,-1098,-1199,-4040,-57,11,1,-375,-63,-689
1,-1128,-1219,-4040,-60,7,-12,-375,-63,-689
1,-1139,-1245,-4023,-67,5,-5,-375,-63,-689
1,-1143,-1232,-4034,-68,5,-7,-375,-63,-689
1,-1142,-1231,-4008,-67,12,-6,-375,-63,-689
1,-1134,-1222,-4041,-68,15,-11,-375,-63,-689
1,-1137,-1199,-4020,-61,5,-14,-375,-63,-689
1,-1144,-1238,-4030,-66,5,-12,-375,-63,-689
1,-1137,-1208,-4021,-67,5,-7,-375,-63,-689
1,-1124,-1218,-4026,-74,9,-15,-375,-63,-689
1,-1127,-1224,-3978,-71,0,-13,-379,-56,-694
1,-1135,-1242,-4030,-73,3,-9,-379,-56,-694
1,-1127,-1222,-4008,-69,2,-14,-379,-56,-694
1,-1112,-1217,-4033,-74,4,-14,-379,-56,-694
1,-1151,-1222,-4020,-69,4,-17,-379,-56,-694
1,-1142,-1236,-4036,-72,8,-19,-379,-56,-694
1,-1125,-1217,-4011,-63,2,-24,-379,-56,-694
1,-1132,-1215,-3999,-66,3,-13,-379,-56,-694
1,-1134,-1225,-4047,-66,2,-20,-379,-56,-694
1,-1133,-1226,-3995,-64,5,-13,-379,-56,-694
1,-1142,-1218,-4004,-63,0,-10,-379,-56,-694
1,-1137,-1211,-4032,-59,9,-11,-379,-56,-694
1,-1133,-1243,-3996,-66,4,-9,-379,-56,-694
1,-1145,-1208,-4018,-64,8,-6,-379,-56,-694
1,-1147,-1215,-4037,-66,3,-2,-379,-56,-694
1,-1123,-1220,-4012,-58,6,-2,-379,-56,-694
1,-1130,-1209,-4013,-65,6,-5,-375,-68,-691
1,-1114,-1230,-4010,-62,3,-4,-375,-68,-691
1,-1158,-1204,-4008,-61,9,-2,-375,-68,-691
1,-1163,-1232,-4030,-56,4,-9,-375,-68,-691
1,-1140,-1192,-4017,-58,-1,-6,-375,-68,-691
1,-1135,-1220,-4021,-60,5,-9,-375,-68,-691
1,-1134,-1235,-3991,-62,10,-4,-375,-68,-691
1,-1121,-1220,-4045,-62,5,-5,-375,-68,-691
1,-1185,-1241,-4018,-63,8,-1,-375,-68,-691
1,-1128,-1215,-4008,-56,6,6,-375,-68,-691
1,-1122,-1217,-3962,-63,10,2,-375,-68,-691
1,-1153,-1215,-4027,-51,6,2,-375,-68,-691
1,-1119,-1220,-4057,-62,4,5,-375,-68,-691
1,-1130,-1200,-4004,-59,12,6,-375,-68,-691
1,-1148,-1236,-4073,-52,17,3,-375,-68,-691
1,-1142,-1253,-4026,-62,4,0,-375,-68,-691
1,-1149,-1217,-4056,-57,10,1,-378,-64,-690
1,-1145,-1215,-4002,-56,6,-1,-378,-64,-690
1,-1146,-1206,-4038,-55,8,4,-378,-64,-690
1,-1115,-1212,-4045,-66,16,3,-378,-64,-690
1,-1110,-1216,-4057,-60,7,2,-378,-64,-690
1,-1155,-1223,-4031,-60,6,-2,-378,-64,-690
1,-1145,-1233,-4044,-59,8,0,-378,-64,-690
1,-1131,-1232,-4009,-57,11,2,-378,-64,-690
1,-1137,-1229,-4037,-64,3,-2,-378,-64,-690
1,-1142,-1225,-4006,-60,8,-3,-378,-64,-690
1,-1106,-1247,-4036,-60,9,-2,-378,-64,-690
1,-1118,-1222,-4029,-58,10,-3,-378,-64,-690
1,-1123,-1237,-3956,-59,11,-6,-378,-64,-690
1,-1103,-1225,-4031,-67,8,-7,-378,-64,-690
1,-1136,-1206,-4057,-62,1,-11,-378,-64,-690
1,-1110,-1231,-4033,-63,2,-8,-378,-64,-690
1,-1114,-1226,-3998,-61,9,-7,-378,-64,-690
1,-1130,-1221,-4002,-67,3,-12,-379,-57,-693
1,-1132,-1228,-4038,-65,7,-12,-379,-57,-693
1,-1156,-1242,-4030,-61,7,-14,-379,-57,-693
1,-1142,-1233,-4033,-64,2,-12,-379,-57,-693
1,-1154,-1214,-3994,-68,5,-13,-379,-57,-693
1,-1142,-1217,-4067,-67,6,-15,-379,-57,-693
1,-1133,-1235,-4036,-70,7,-12,-379,-57,-693
1,-1114,-1202,-4046,-65,3,-9,-379,-57,-693
1,-1123,-1221,-4019,-65,8,-9,-379,-57,-693
1,-1155,-1204,-4060,-67,-3,-7,-379,-57,-693
1,-1129,-1231,-4026,-63,5,-10,-379,-57,-693
1,-1152,-1222,-3990,-67,-3,-14,-379,-57,-693
1,-1157,-1221,-4041,-68,3,-13,-379,-57,-693
1,-1135,-1229,-3993,-63,2,-8,-379,-57,-693
1,-1136,-1203,-4022,-62,2,-7,-379,-57,-693
1,-1168,-1220,-4013,-63,1,-5,-379,-57,-693
1,-1163,-1240,-4044,-65,0,-9,-379,-66,-688
1,-1111,-1233,-4003,-56,3,-6,-379,-66,-688
1,-1139,-1226,-4014,-58,2,-5,-379,-66,-688
1,-1112,-1253,-4062,-65,7,-7,-379,-66,-688
1,-1148,-1218,-4027,-55,5,-7,-379,-66,-688
1,-1121,-1204,-4025,-59,7,-8,-379,-66,-688
1,-1137,-1215,-4043,-59,9,-8,-379,-66,-688
1,-1132,-1211,-4034,-61,7,-1,-379,-66,-688
1,-1147,-1208,-4022,-61,4,-5,-379,-66,-688
1,-1126,-1212,-4006,-52,5,-3,-379,-66,-688
1,-1131,-1201,-4033,-62,9,3,-379,-66,-688
1,-1130,-1210,-4036,-61,5,-1,-379,-66,-688
1,-1123,-1196,-4029,-52,-2,2,-379,-66,-688
1,-1156,-1221,-3986,-60,7,-3,-379,-66,-688
1,-1125,-1249,-4043,-59,4,-2,-379,-66,-688
1,-1129,-1223,-4027,-61,-1,0,-379,-66,-688
1,-1117,-1202,-4019,-54,3,-8,-379,-64,-688
1,-1149,-1230,-4016,-59,6,-8,-377,-64,-686
1,-1153,-1233,-4021,-64,9,-5,-377,-64,-686
1,-1151,-1226,-4053,-65,4,-9,-377,-64,-686
1,-1118,-1233,-4068,-61,5,-8,-377,-64,-686
1,-1130,-1213,-4016,-66,9,-9,-377,-64,-686
1,-1139,-1229,-3997,-66,7,-8,-377,-64,-686
1,-1136,-1216,-4006,-62,4,-7,-377,-64,-686
1,-1140,-1218,-4021,-58,4,-10,-377,-64,-686
1,-1140,-1223,-4015,-62,2,-6,-377,-64,-686
1,-1155,-1216,-4010,-67,4,-7,-377,-64,-686
1,-1113,-1235,-4057,-63,5,-10,-377,-64,-686
1,-1109,-1217,-3989,-62,8,-9,-377,-64,-686
1,-1131,-1220,-4019,-61,-3,-9,-377,-64,-686
1,-1111,-1223,-4028,-66,6,-10,-377,-64,-686
1,-1145,-1212,-4032,-65,2,-9,-377,-64,-686
1,-1124,-1245,-4048,-69,4,-12,-377,-64,-686
1,-1152,-1223,-3997,-63,5,-10,-381,-57,-691
1,-1159,-1221,-4055,-67,2,-11,-381,-57,-691
1,-1142,-1236,-4030,-70,10,-10,-381,-57,-691
1,-1117,-1208,-4014,-67,6,-6,-381,-57,-691
1,-1151,-1215,-4044,-63,11,-8,-381,-57,-691
1,-1167,-1200,-3991,-67,9,-6,-381,-57,-691
1,-1156,-1225,-4024,-66,3,-1,-381,-57,-691
1,-1144,-1223,-4025,-62,4,-8,-381,-57,-691
1,-1142,-1226,-4032,-62,7,-2,-381,-57,-691
1,-1132,-1213,-4006,-63,11,-2,-381,-57,-691
1,-1143,-1223,-3999,-68,7,-3,-381,-57,-691
1,-1147,-1208,-4060,-67,8,-4,-381,-57,-691
1,-1138,-1223,-4015,-60,4,-1,-381,-57,-691
1,-1142,-1216,-4039,-59,5,-6,-381,-57,-691
1,-1144,-1226,-4054,-60,3,-7,-381,-57,-691
1,-1122,-1213,-4049,-54,-1,-2,-381,-57,-691
1,-1153,-1220,-4032,-66,9,-2,-376,-68,-691
1,-1147,-1217,-4066,-60,4,-5,-376,-68,-691
1,-1137,-1219,-4036,-59,9,-6,-376,-68,-691
1,-1131,-1207,-4025,-64,7,-10,-376,-68,-691
1,-1137,-1210,-4025,-65,9,-4,-376,-68,-691
1,-1153,-1213,-4038,-65,7,-8,-376,-68,-691
1,-1144,-1217,-4045,-67,6,1,-376,-68,-691
1,-1128,-1224,-4002,-65,7,-6,-376,-68,-691
1,-1142,-1216,-4027,-66,4,-3,-376,-68,-691
1,-1131,-1210,-4056,-63,4,-7,-376,-68,-691
1,-1138,-1237,-4028,-67,-1,-11,-376,-68,-691
1,-1151,-1213,-4018,-61,-2,-12,-376,-68,-691
1,-1146,-1214,-4022,-63,5,-12,-376,-68,-691
1,-1135,-1225,-4018,-54,6,-13,-376,-68,-691
1,-1161,-1224,-4015,-67,0,-12,-376,-68,-691
1,-1120,-1206,-4015,-64,5,-15,-376,-68,-691
1,-1132,-1241,-4019,-60,4,-6,-376,-68,-691
1,-1162,-1224,-3976,-62,14,3,-374,-64,-685
1,-1153,-1218,-4009,-64,6,1,-374,-64,-685
1,-1094,-1211,-3983,-61,7,4,-374,-64,-685
1,-1145,-1220,-4013,-64,9,8,-374,-64,-685
1,-1153,-1246,-3987,-56,8,12,-374,-64,-685
1,-1137,-1229,-4056,-64,6,6,-374,-64,-685
1,-1123,-1248,-4036,-56,17,3,-374,-64,-685
1,-1085,-1218,-4017,-56,7,3,-374,-64,-685
1,-1128,-1219,-4036,-59,6,-6,-374,-64,-685
1,-1128,-1226,-4006,-58,4,-4,-374,-64,-685
1,-1149,-1222,-4020,-52,0,-4,-374,-64,-685
1,-1115,-1196,-4033,-53,10,-10,-374,-64,-685
1,-1136,-1228,-4000,-54,1,-10,-374,-64,-685
1,-1145,-1224,-4028,-63,9,-8,-374,-64,-685
1,-1121,-1224,-3993,-61,7,-4,-374,-64,-685
1,-1101,-1237,-4024,-66,12,-5,-374,-64,-685
1,-1154,-1218,-4016,-71,1,-2,-379,-58,-692
1,-1131,-1209,-4036,-63,4,-3,-379,-58,-692
1,-1135,-1235,-4039,-66,5,-5,-379,-58,-692
1,-1130,-1226,-4056,-67,-2,-9,-379,-58,-692
1,-1126,-1225,-4051,-70,1,-23,-379,-58,-692
1,-1130,-1222,-4054,-70,-6,-25,-379,-58,-692
1,-1126,-1226,-4021,-70,-4,-34,-379,-58,-692
1,-1124,-1203,-4030,-70,3,-34,-379,-58,-692
1,-1124,-1207,-3991,-79,-2,-38,-379,-58,-692
1,-1138,-1248,-4046,-77,0,-32,-379,-58,-692
1,-1147,-1212,-4039,-78,0,-31,-379,-58,-692
1,-1133,-1211,-4033,-78,2,-27,-379,-58,-692
1,-1137,-1215,-4001,-80,1,-27,-379,-58,-692
1,-1130,-1206,-4031,-75,-2,-22,-379,-58,-692
1,-1160,-1221,-4008,-79,-2,-12,-379,-58,-692
1,-1140,-1208,-3980,-78,1,-15,-379,-58,-692
1,-1175,-1214,-4045,-69,-11,-14,-378,-67,-692
1,-1137,-1228,-4009,-68,-7,-16,-378,-67,-692
1,-1148,-1222,-4020,-53,-2,-23,-378,-67,-692
1,-1152,-1213,-3972,-48,-3,-14,-378,-67,-692
1,-1172,-1207,-3983,-54,2,-18,-378,-67,-692
1,-1141,-1247,-4029,-53,6,-10,-378,-67,-692
1,-1146,-1237,-3996,-42,18,2,-378,-67,-692
1,-1162,-1225,-4011,-47,17,11,-378,-67,-692
1,-1171,-1227,-4013,-48,24,26,-378,-67,-692
1,-1135,-1261,-4051,-51,25,42,-378,-67,-692
1,-1153,-1223,-4030,-39,32,55,-378,-67,-692
1,-1131,-1221,-4042,-50,27,58,-378,-67,-692
1,-1143,-1214,-4068,-46,33,56,-378,-67,-692
1,-1117,-1211,-4013,-40,22,52,-378,-67,-692
1,-1150,-1238,-3991,-35,17,37,-378,-67,-692
1,-1109,-1241,-3994,-36,13,29,-378,-67,-692
1,-1148,-1265,-4013,-35,21,14,-378,-63,-686
1,-1122,-1248,-4047,-41,14,8,-377,-63,-686
1,-1140,-1238,-4046,-44,4,-7,-377,-63,-686
1,-1125,-1220,-4072,-48,8,-9,-377,-63,-686
1,-1135,-1232,-3998,-51,6,-10,-377,-63,-686
1,-1176,-1235,-4010,-62,6,-12,-377,-63,-686
1,-1150,-1233,-4034,-73,10,-17,-377,-63,-686
1,-1136,-1211,-4019,-76,3,-20,-377,-63,-686
1,-1140,-1208,-4042,-78,3,-17,-377,-63,-686
1,-1142,-1224,-4032,-85,-1,-18,-377,-63,-686
1,-1128,-1247,-3985,-89,3,-30,-377,-63,-686
1,-1155,-1247,-4023,-90,-5,-30,-377,-63,-686
1,-1127,-1231,-4014,-88,-6,-42,-377,-63,-686
1,-1122,-1236,-4023,-92,-10,-51,-377,-63,-686
1,-1136,-1253,-4025,-94,-8,-57,-377,-63,-686
1,-1143,-1221,-4028,-91,-9,-56,-377,-63,-686
1,-1123,-1201,-4022,-94,-7,-55,-377,-63,-686
1,-1142,-1202,-4040,-91,-5,-45,-378,-57,-690
1,-1137,-1214,-4021,-86,1,-43,-378,-57,-690
1,-1128,-1207,-4031,-78,-1,-30,-378,-57,-690
1,-1131,-1196,-4023,-79,8,-21,-378,-57,-690
1,-1174,-1206,-4034,-73,10,-8,-378,-57,-690
1,-1137,-1203,-4005,-74,8,-2,-378,-57,-690
1,-1120,-1207,-4045,-64,6,3,-378,-57,-690
1,-1117,-1201,-4013,-54,13,16,-378,-57,-690
1,-1094,-1193,-4069,-58,17,15,-378,-57,-690
1,-1113,-1234,-4016,-46,19,21,-378,-57,-690
1,-1126,-1201,-4034,-45,10,19,-378,-57,-690
1,-1110,-1215,-4006,-37,16,26,-378,-57,-690
1,-1138,-1214,-4034,-37,17,31,-378,-57,-690
1,-1145,-1225,-4039,-35,12,25,-378,-57,-690
1,-1117,-1239,-4031,-32,15,31,-378,-57,-690
1,-1136,-1217,-4070,-38,14,31,-378,-57,-690
1,-1163,-1217,-4003,-36,11,33,-378,-66,-690
1,-1135,-1210,-4023,-36,14,29,-378,-66,-690
1,-1141,-1230,-4003,-47,14,25,-378,-66,-690
1,-1144,-1225,-4037,-43,13,19,-378,-66,-690
1,-1119,-1229,-4026,-51,11,15,-378,-66,-690
1,-1136,-1237,-4035,-55,6,3,-378,-66,-690
1,-1103,-1231,-3990,-58,3,-1,-378,-66,-690
1,-1154,-1237,-3987,-59,2,-12,-378,-66,-690
1,-1137,-1210,-4015,-68,-3,-21,-378,-66,-690
1,-1110,-1228,-4006,-68,-10,-28,-378,-66,-690
1,-1142,-1218,-3996,-69,-7,-32,-378,-66,-690
1,-1138,-1238,-4026,-77,-7,-41,-378,-66,-690
1,-1135,-1220,-4030,-79,-19,-42,-378,-66,-690
1,-1146,-1208,-4025,-77,-12,-44,-378,-66,-690
1,-1156,-1202,-4043,-81,-7,-52,-378,-66,-690
1,-1114,-1233,-4018,-77,-13,-47,-378,-66,-690
1,-1162,-1236,-4024,-85,-9,-42,-376,-65,-685
1,-1151,-1243,-4024,-80,-7,-42,-376,-65,-685
1,-1149,-1224,-4022,-76,-7,-35,-376,-65,-685
1,-1131,-1228,-4036,-76,-1,-29,-376,-65,-685
1,-1166,-1196,-4021,-74,-2,-24,-376,-65,-685
1,-1155,-1214,-4007,-66,2,-16,-376,-65,-685
1,-1165,-1217,-4020,-64,2,-14,-376,-65,-685
1,-1159,-1193,-4016,-65,-4,-1,-376,-65,-685
1,-1140,-1245,-4020,-54,11,-3,-376,-65,-685
1,-1147,-1221,-4018,-53,4,1,-376,-65,-685
1,-1175,-1201,-3999,-50,10,9,-376,-65,-685
1,-1148,-1223,-4015,-47,7,11,-376,-65,-685
1,-1159,-1230,-3997,-49,18,13,-376,-65,-685
1,-1161,-1213,-4022,-41,11,17,-376,-65,-685
1,-1130,-1242,-4043,-45,20,20,-376,-65,-685
1,-1158,-1224,-4026,-46,14,25,-376,-65,-685
1,-1136,-1225,-4015,-47,23,34,-376,-59,-691
1,-1113,-1239,-4053,-47,19,38,-379,-59,-691
1,-1125,-1249,-4027,-46,23,35,-379,-59,-691
1,-1152,-1222,-3986,-45,22,32,-379,-59,-691
1,-1117,-1233,-4027,-47,17,29,-379,-59,-691
1,-1116,-1220,-4045,-52,22,26,-379,-59,-691
1,-1118,-1236,-4034,-50,21,11,-379,-59,-691
1,-1131,-1247,-3988,-59,13,9,-379,-59,-691
1,-1128,-1239,-4018,-61,14,4,-379,-59,-691
1,-1116,-1235,-4027,-61,9,-3,-379,-59,-691
1,-1115,-1233,-4050,-68,1,-12,-379,-59,-691
1,-1126,-1222,-4024,-71,8,-14,-379,-59,-691
1,-1140,-1228,-4019,-72,5,-20,-379,-59,-691
1,-1139,-1235,-4021,-77,2,-15,-379,-59,-691
1,-1157,-1226,-4019,-78,-4,-23,-379,-59,-691
1,-1116,-1214,-4043,-79,5,-21,-379,-59,-691
1,-1136,-1218,-4013,-80,-2,-22,-379,-59,-691
1,-1144,-1202,-4046,-83,-2,-28,-379,-68,-685
1,-1134,-1229,-4004,-84,-11,-25,-379,-68,-685
1,-1125,-1216,-4036,-74,-6,-28,-379,-68,-685
1,-1139,-1214,-3992,-81,0,-35,-379,-68,-685
1,-1117,-1218,-4014,-77,-5,-34,-379,-68,-685
1,-1130,-1208,-3991,-74,-5,-29,-379,-68,-685
1,-1133,-1217,-4057,-72,-1,-28,-379,-68,-685
1,-1127,-1222,-4051,-71,-1,-21,-379,-68,-685
1,-1117,-1226,-4039,-70,9,-17,-379,-68,-685
1,-1157,-1209,-4025,-72,5,-9,-379,-68,-685
1,-1144,-1225,-4008,-61,5,0,-379,-68,-685
1,-1135,-1195,-3981,-60,-2,-4,-379,-68,-685
1,-1140,-1202,-3997,-58,4,1,-379,-68,-685
1,-1131,-1220,-4000,-55,3,8,-379,-68,-685
1,-1158,-1230,-4002,-50,17,1,-379,-68,-685
1,-1135,-1229,-4054,-53,1,3,-379,-68,-685
1,-1137,-1198,-4049,-54,7,6,-376,-65,-685
1,-1113,-1215,-4018,-51,4,4,-376,-65,-685
1,-1118,-1223,-3991,-53,6,3,-376,-65,-685
1,-1125,-1215,-4010,-51,0,2,-376,-65,-685
1,-1153,-1225,-4044,-54,11,3,-376,-65,-685
1,-1132,-1211,-4057,-57,6,7,-376,-65,-685
1,-1113,-1225,-4028,-53,5,4,-376,-65,-685
1,-1115,-1249,-4013,-56,13,-1,-376,-65,-685
1,-1107,-1211,-4015,-60,5,0,-376,-65,-685
1,-1119,-1220,-4050,-64,4,-5,-376,-65,-685
1,-1119,-1223,-4013,-63,2,-7,-376,-65,-685
1,-1118,-1223,-4056,-62,4,-14,-376,-65,-685
1,-1140,-1222,-4019,-62,1,-15,-376,-65,-685
1,-1141,-1217,-4031,-72,6,-14,-376,-65,-685
1,-1147,-1210,-3994,-70,3,-22,-376,-65,-685
1,-1116,-1222,-4033,-70,5,-23,-376,-65,-685
1,-1147,-1214,-4012,-74,0,-27,-379,-59,-691
1,-1162,-1229,-4023,-78,0,-26,-379,-59,-691
1,-1142,-1205,-4035,-74,1,-23,-379,-59,-691
1,-1142,-1211,-4009,-76,-4,-22,-379,-59,-691
1,-1150,-1215,-4018,-73,7,-22,-379,-59,-691
1,-1145,-1232,-4016,-72,6,-22,-379,-59,-691
1,-1136,-1220,-4029,-72,0,-16,-379,-59,-691
1,-1133,-1208,-4028,-67,4,-17,-379,-59,-691
1,-1128,-1230,-4061,-69,9,-8,-379,-59,-691
1,-1155,-1233,-4057,-65,8,-6,-379,-59,-691
1,-1129,-1201,-4048,-61,5,-8,-379,-59,-691
1,-1134,-1218,-4038,-59,3,-2,-379,-59,-691
1,-1129,-1221,-4019,-60,14,6,-379,-59,-691
1,-1155,-1229,-3953,-56,13,10,-379,-59,-691
1,-1135,-1198,-4043,-54,20,15,-379,-59,-691
1,-1119,-1206,-4035,-44,17,11,-379,-59,-691
1,-1145,-1212,-4039,-47,12,19,-379,-59,-691
1,-1145,-1225,-4054,-48,10,21,-375,-68,-689
1,-1148,-1232,-4053,-44,13,24,-375,-68,-689
1,-1144,-1237,-4059,-48,20,16,-375,-68,-689
1,-1123,-1221,-4040,-48,14,22,-375,-68,-689
1,-1133,-1228,-4055,-48,12,27,-375,-68,-689
1,-1121,-1235,-4010,-45,18,25,-375,-68,-689
1,-1159,-1249,-4029,-48,17,21,-375,-68,-689
1,-1140,-1219,-3996,-47,16,13,-375,-68,-689
1,-1159,-1241,-4027,-50,14,18,-375,-68,-689
1,-1124,-1228,-3998,-49,17,17,-375,-68,-689
1,-1135,-1228,-4007,-55,7,17,-375,-68,-689
1,-1141,-1224,-4013,-59,8,8,-375,-68,-689
1,-1125,-1238,-3993,-62,9,4,-375,-68,-689
1,-1123,-1240,-4030,-59,4,3,-375,-68,-689
1,-1153,-1229,-3996,-65,-1,-7,-375,-68,-689
1,-1129,-1218,-4014,-62,2,-13,-375,-68,-689
1,-1132,-1209,-4026,-66,-5,-17,-375,-65,-684
1,-1128,-1244,-3991,-69,2,-18,-375,-65,-684
1,-1132,-1258,-4046,-72,-4,-19,-375,-65,-684
1,-1130,-1222,-4021,-72,0,-23,-375,-65,-684
1,-1151,-1204,-4024,-74,0,-29,-375,-65,-684
1,-1124,-1228,-4044,-78,1,-30,-375,-65,-684
1,-1147,-1219,-3983,-72,-6,-28,-375,-65,-684
1,-1163,-1235,-4015,-77,-2,-32,-375,-65,-684
1,-1149,-1207,-4061,-78,-6,-27,-375,-65,-684
1,-1139,-1226,-4016,-77,2,-29,-375,-65,-684
1,-1136,-1218,-4043,-71,-5,-26,-375,-65,-684
1,-1146,-1245,-4005,-81,-3,-27,-375,-65,-684
1,-1138,-1217,-4041,-72,-6,-24,-375,-65,-684
1,-1152,-1224,-4001,-79,-2,-28,-375,-65,-684
1,-1128,-1188,-4011,-71,1,-18,-375,-65,-684
1,-1133,-1215,-4015,-69,4,-18,-375,-65,-684
1,-1118,-1209,-4044,-65,1,-14,-380,-56,-691
1,-1148,-1208,-4007,-71,0,-9,-380,-56,-691
1,-1129,-1218,-3994,-65,8,-7,-380,-56,-691
1,-1125,-1207,-4013,-59,8,0,-380,-56,-691
1,-1121,-1229,-4055,-66,5,-1,-380,-56,-691
1,-1133,-1205,-4057,-58,10,2,-380,-56,-691
1,-1119,-1222,-4002,-57,12,4,-380,-56,-691
1,-1135,-1213,-4010,-54,2,3,-380,-56,-691
1,-1143,-1213,-4028,-57,11,5,-380,-56,-691
1,-1123,-1234,-3998,-50,14,7,-380,-56,-691
1,-1145,-1205,-4037,-51,14,16,-380,-56,-691
1,-1131,-1233,-4054,-57,12,12,-380,-56,-691
1,-1108,-1205,-4014,-54,15,16,-380,-56,-691
1,-1152,-1211,-4001,-53,9,18,-380,-56,-691
1,-1120,-1234,-4037,-48,19,18,-380,-56,-691
1,-1139,-1208,-4058,-50,11,15,-380,-56,-691
1,-1137,-1205,-4058,-56,13,15,-380,-69,-691
1,-1151,-1249,-4021,-50,8,12,-377,-69,-691
1,-1121,-1218,-4001,-51,13,8,-377,-69,-691
1,-1136,-1229,-4013,-54,6,-3,-377,-69,-691
1,-1160,-1241,-3989,-53,7,-4,-377,-69,-691
1,-1125,-1226,-4013,-60,12,-7,-377,-69,-691
1,-1139,-1235,-4022,-61,9,-4,-377,-69,-691
1,-1153,-1229,-4041,-64,9,-9,-377,-69,-691
1,-1104,-1215,-4050,-68,4,-4,-377,-69,-691
1,-1125,-1205,-4022,-67,7,-12,-377,-69,-691
1,-1140,-1230,-4015,-65,1,-8,-377,-69,-691
1,-1126,-1228,-4039,-69,1,-8,-377,-69,-691
1,-1119,-1235,-4037,-69,-4,-20,-377,-69,-691
1,-1122,-1214,-4017,-69,3,-17,-377,-69,-691
1,-1137,-1232,-3991,-67,-5,-22,-377,-69,-691
1,-1161,-1228,-4061,-67,-7,-26,-377,-69,-691
1,-1108,-1240,-4021,-69,-1,-25,-377,-69,-691
1,-1137,-1242,-4013,-70,-5,-27,-375,-65,-684
1,-1123,-1250,-4038,-77,-4,-22,-375,-65,-684
1,-1122,-1242,-4027,-67,5,-33,-375,-65,-684
1,-1136,-1197,-4011,-78,2,-18,-375,-65,-684
1,-1143,-1220,-4031,-65,-4,-23,-375,-65,-684
1,-1141,-1234,-4011,-73,-1,-18,-375,-65,-684
1,-1118,-1216,-4029,-69,5,-14,-375,-65,-684
1,-1131,-1198,-4031,-65,-3,-16,-375,-65,-684
1,-1149,-1229,-4039,-74,-2,-15,-375,-65,-684
1,-1131,-1207,-3987,-71,2,-11,-375,-65,-684
1,-1128,-1213,-4024,-65,2,-15,-375,-65,-684
1,-1168,-1190,-4030,-58,0,-20,-375,-65,-684
1,-1141,-1249,-4007,-64,8,-18,-375,-65,-684
1,-1131,-1212,-4025,-60,8,-16,-375,-65,-684
1,-1118,-1218,-3990,-60,6,-14,-375,-65,-684
1,-1133,-1221,-3999,-68,3,-10,-375,-65,-684
1,-1135,-1214,-4031,-68,5,-4,-382,-58,-691
1,-1148,-1220,-4017,-65,14,-7,-382,-58,-691
1,-1147,-1230,-4036,-62,4,-3,-382,-58,-691
1,-1161,-1215,-4022,-61,9,2,-382,-58,-691
1,-1149,-1233,-4000,-66,1,1,-382,-58,-691
1,-1150,-1226,-4032,-63,2,-1,-382,-58,-691
1,-1121,-1208,-4005,-61,-2,-8,-382,-58,-691
1,-1130,-1238,-4044,-62,4,-3,-382,-58,-691
1,-1158,-1219,-4048,-61,4,-7,-382,-58,-691
1,-1124,-1211,-3990,-67,6,-9,-382,-58,-691
1,-1125,-1209,-4039,-63,9,-13,-382,-58,-691
1,-1118,-1216,-4037,-62,14,-8,-382,-58,-691
1,-1144,-1227,-4013,-62,11,-2,-382,-58,-691
1,-1151,-1198,-4023,-66,9,2,-382,-58,-691
1,-1117,-1227,-3985,-67,11,0,-382,-58,-691
1,-1135,-1211,-3987,-63,12,6,-382,-58,-691
1,-1144,-1212,-4029,-60,16,9,-378,-67,-690
1,-1113,-1207,-4005,-59,14,2,-378,-67,-690
1,-1129,-1226,-4025,-55,15,4,-378,-67,-690
1,-1141,-1226,-4039,-56,10,2,-378,-67,-690
1,-1111,-1221,-4006,-60,11,4,-378,-67,-690
1,-1134,-1221,-3978,-50,10,-1,-378,-67,-690
1,-1141,-1207,-3991,-59,12,-4,-378,-67,-690
1,-1125,-1229,-3997,-60,7,-2,-378,-67,-690
1,-1130,-1221,-4027,-60,7,-4,-378,-67,-690
1,-1138,-1211,-4064,-61,11,0,-378,-67,-690
1,-1145,-1221,-4046,-56,4,0,-378,-67,-690
1,-1128,-1240,-4017,-52,11,5,-378,-67,-690
1,-1155,-1230,-3988,-56,7,12,-378,-67,-690
1,-1117,-1237,-4029,-57,4,9,-378,-67,-690
1,-1115,-1236,-4012,-60,3,5,-378,-67,-690
1,-1117,-1232,-4027,-59,11,-1,-378,-67,-690
1,-1125,-1238,-4034,-62,10,1,-378,-67,-690
1,-1127,-1212,-3995,-62,6,-1,-375,-66,-685
1,-1129,-1212,-4021,-67,3,-7,-375,-66,-685
1,-1108,-1239,-4018,-62,7,-11,-375,-66,-685
1,-1121,-1215,-4045,-62,0,-8,-375,-66,-685
1,-1128,-1200,-4036,-59,-1,-9,-375,-66,-685
1,-1135,-1231,-4066,-67,3,-12,-375,-66,-685
1,-1116,-1215,-4020,-66,3,-12,-375,-66,-685
1,-1124,-1239,-4018,-64,1,-12,-375,-66,-685
1,-1131,-1222,-4022,-61,4,-16,-375,-66,-685
1,-1123,-1192,-4019,-67,-2,-12,-375,-66,-685
1,-1135,-1244,-4050,-68,-4,-17,-375,-66,-685
1,-1156,-1203,-4038,-66,-3,-22,-375,-66,-685
1,-1150,-1232,-4049,-72,-1,-17,-375,-66,-685
1,-1137,-1227,-4020,-66,4,-21,-375,-66,-685
1,-1138,-1243,-4020,-66,4,-14,-375,-66,-685
1,-1111,-1207,-4022,-73,4,-16,-375,-66,-685
1,-1129,-1232,-4068,-65,-3,-14,-380,-60,-692
1,-1127,-1206,-4022,-68,-2,-10,-380,-60,-692
1,-1165,-1236,-4039,-61,6,-14,-380,-60,-692
1,-1145,-1216,-4040,-65,-1,-10,-380,-60,-692
1,-1148,-1239,-4039,-64,5,-12,-380,-60,-692
1,-1128,-1209,-4020,-65,0,-11,-380,-60,-692
1,-1144,-1232,-4050,-61,7,-11,-380,-60,-692
1,-1140,-1230,-4021,-65,7,-3,-380,-60,-692
1,-1151,-1208,-4007,-59,3,-11,-380,-60,-692
1,-1151,-1220,-4036,-63,6,-4,-380,-60,-692
1,-1143,-1202,-3956,-65,7,4,-380,-60,-692
1,-1129,-1198,-4045,-61,6,-1,-380,-60,-692
1,-1119,-1217,-4001,-59,14,1,-380,-60,-692
1,-1144,-1226,-4040,-59,8,4,-380,-60,-692
1,-1130,-1223,-4041,-57,14,5,-380,-60,-692
1,-1141,-1217,-4072,-59,12,8,-380,-60,-692
1,-1125,-1221,-4023,-55,9,8,-378,-64,-689
1,-1149,-1206,-3986,-55,10,4,-378,-64,-689
1,-1140,-1232,-4046,-55,10,13,-378,-64,-689
1,-1143,-1230,-4003,-59,7,7,-378,-64,-689
1,-1154,-1217,-4016,-54,16,4,-378,-64,-689
1,-1152,-1223,-3999,-62,16,2,-378,-64,-689
1,-1125,-1224,-4012,-61,20,8,-378,-64,-689
1,-1135,-1195,-4033,-60,19,8,-378,-64,-689
1,-1142,-1245,-4016,-60,12,3,-378,-64,-689
1,-1131,-1208,-4021,-60,17,2,-378,-64,-689
1,-1134,-1244,-4005,-61,10,5,-378,-64,-689
1,-1113,-1208,-4042,-63,4,5,-378,-64,-689
1,-1130,-1227,-4023,-67,12,2,-378,-64,-689
1,-1149,-1232,-4028,-69,5,-4,-378,-64,-689
1,-1132,-1230,-4014,-63,5,-9,-378,-64,-689
1,-1111,-1236,-3996,-59,3,-13,-378,-64,-689
1,-1123,-1217,-4021,-63,6,-14,-378,-64,-689
1,-1115,-1226,-4019,-69,6,-17,-374,-65,-678
1,-1127,-1202,-4022,-73,-1,-16,-374,-65,-678
1,-1162,-1245,-4031,-68,1,-11,-374,-65,-678
1,-1142,-1254,-4021,-69,0,-12,-374,-65,-678
1,-1135,-1199,-3992,-74,7,-14,-374,-65,-678
1,-1169,-1225,-3990,-71,1,-19,-374,-65,-678
1,-1126,-1230,-4009,-67,-8,-12,-374,-65,-678
1,-1138,-1214,-4046,-69,6,-19,-374,-65,-678
1,-1129,-1239,-4056,-66,-3,-21,-374,-65,-678
1,-1168,-1192,-4026,-75,7,-24,-374,-65,-678
1,-1129,-1245,-4008,-69,0,-27,-374,-65,-678
1,-1130,-1223,-4040,-67,-1,-26,-374,-65,-678
1,-1152,-1204,-3998,-72,-1,-23,-374,-65,-678
1,-1118,-1222,-3990,-72,-1,-20,-374,-65,-678
1,-1135,-1246,-4032,-65,4,-22,-374,-65,-678
1,-1135,-1229,-4009,-67,0,-17,-374,-65,-678
1,-1126,-1208,-4023,-70,-1,-11,-381,-57,-691
1,-1134,-1239,-4020,-64,-1,-11,-381,-57,-691
1,-1133,-1223,-4038,-71,6,-9,-381,-57,-691
1,-1140,-1213,-3989,-68,3,-12,-381,-57,-691
1,-1125,-1217,-4020,-53,2,-7,-381,-57,-691
1,-1115,-1225,-4031,-57,5,-7,-381,-57,-691
1,-1150,-1199,-4049,-58,4,-11,-381,-57,-691
1,-1136,-1236,-4019,-55,5,-5,-381,-57,-691
1,-1128,-1218,-4024,-60,13,-9,-381,-57,-691
1,-1152,-1246,-4030,-61,2,-7,-381,-57,-691
1,-1132,-1217,-4009,-56,15,1,-381,-57,-691
1,-1123,-1215,-3989,-58,6,1,-381,-57,-691
1,-1133,-1251,-4035,-66,15,0,-381,-57,-691
1,-1151,-1225,-4027,-54,8,6,-381,-57,-691
1,-1138,-1237,-4013,-63,-1,3,-381,-57,-691
1,-1166,-1240,-3983,-56,8,0,-381,-57,-691
1,-1158,-1225,-4013,-62,15,-1,-376,-66,-690
1,-1090,-1218,-4024,-52,6,-1,-376,-66,-690
1,-1113,-1210,-4009,-60,9,-3,-376,-66,-690
1,-1154,-1218,-4026,-60,11,2,-376,-66,-690
1,-1147,-1210,-4062,-64,10,2,-376,-66,-690
1,-1164,-1204,-4040,-58,13,0,-376,-66,-690
1,-1131,-1212,-4054,-62,11,0,-376,-66,-690
1,-1110,-1233,-4050,-59,12,7,-376,-66,-690
1,-1136,-1256,-4021,-63,11,5,-376,-66,-690
1,-1134,-1232,-4050,-61,14,10,-376,-66,-690
1,-1110,-1237,-4017,-58,7,4,-376,-66,-690
1,-1140,-1235,-3998,-61,9,6,-376,-66,-690
1,-1142,-1226,-4010,-56,8,-2,-376,-66,-690
1,-1138,-1234,-4018,-65,4,-9,-376,-66,-690
1,-1133,-1215,-4028,-56,5,-11,-376,-66,-690
1,-1134,-1230,-4067,-68,3,-13,-376,-66,-690
1,-1109,-1226,-4001,-65,8,-9,-376,-66,-690
1,-1127,-1217,-4003,-60,10,-10,-376,-63,-685
1,-1147,-1219,-4021,-66,8,-4,-376,-63,-685
1,-1153,-1208,-4010,-63,4,-6,-376,-63,-685
1,-1139,-1228,-4025,-66,0,-4,-376,-63,-685
1,-1133,-1213,-4037,-69,3,-3,-376,-63,-685
1,-1124,-1245,-4020,-70,5,0,-376,-63,-685
1,-1123,-1242,-4030,-68,1,-5,-376,-63,-685
1,-1157,-1239,-4026,-69,-1,-8,-376,-63,-685
1,-1115,-1222,-3963,-72,0,-13,-376,-63,-685
1,-1142,-1237,-4030,-66,4,-13,-376,-63,-685
1,-1123,-1224,-4020,-58,-2,-17,-376,-63,-685
1,-1131,-1236,-4021,-58,0,-14,-376,-63,-685
1,-1147,-1215,-4053,-64,2,-14,-376,-63,-685
1,-1141,-1218,-4047,-66,5,-14,-376,-63,-685
1,-1142,-1223,-4026,-68,-1,-9,-376,-63,-685
1,-1167,-1242,-4052,-70,6,-3,-376,-63,-685
1,-1125,-1239,-4026,-61,3,-4,-382,-57,-689
1,-1124,-1223,-3993,-62,1,-3,-382,-57,-689
1,-1131,-1208,-4023,-56,6,-2,-382,-57,-689
1,-1105,-1238,-4030,-65,6,-3,-382,-57,-689
1,-1116,-1230,-4067,-63,10,-7,-382,-57,-689
1,-1133,-1223,-4041,-60,-2,-5,-382,-57,-689
1,-1148,-1229,-4023,-65,10,-10,-382,-57,-689
1,-1152,-1207,-4009,-62,4,-11,-382,-57,-689
1,-1124,-1228,-4046,-56,6,-14,-382,-57,-689
1,-1130,-1236,-4048,-67,5,-13,-382,-57,-689
1,-1127,-1230,-3997,-68,6,-13,-382,-57,-689
1,-1130,-1221,-4026,-58,3,-4,-382,-57,-689
1,-1128,-1224,-4035,-62,6,-7,-382,-57,-689
1,-1145,-1232,-4025,-59,1,-7,-382,-57,-689
1,-1143,-1223,-3997,-68,4,-8,-382,-57,-689
1,-1120,-1213,-4023,-59,3,-9,-382,-57,-689
1,-1152,-1245,-4036,-64,5,-4,-378,-67,-689
1,-1132,-1226,-4027,-64,3,-11,-378,-67,-689
1,-1146,-1214,-4000,-63,12,-9,-378,-67,-689
1,-1142,-1240,-4034,-69,7,-11,-378,-67,-689
1,-1174,-1221,-4042,-62,9,-8,-378,-67,-689
1,-1132,-1224,-4008,-71,10,-8,-378,-67,-689
1,-1139,-1202,-3982,-67,6,-17,-378,-67,-689
1,-1153,-1226,-3995,-57,2,-9,-378,-67,-689
1,-1158,-1240,-4015,-70,0,-12,-378,-67,-689
1,-1137,-1246,-3984,-62,6,-12,-378,-67,-689
1,-1130,-1214,-4060,-61,4,-12,-378,-67,-689
1,-1134,-1211,-4033,-61,9,-13,-378,-67,-689
1,-1156,-1244,-4014,-63,6,-13,-378,-67,-689
1,-1124,-1224,-4032,-66,3,-13,-378,-67,-689
1,-1138,-1211,-4018,-62,6,-7,-378,-67,-689
1,-1123,-1223,-4013,-66,15,0,-378,-67,-689
1,-1167,-1201,-4021,-67,11,-3,-378,-67,-689
1,-1133,-1219,-4049,-66,11,5,-375,-66,-683
1,-1141,-1223,-4028,-63,10,-1,-375,-66,-683
1,-1150,-1224,-4001,-68,2,0,-375,-66,-683
1,-1135,-1230,-4027,-63,7,-2,-375,-66,-683
1,-1136,-1218,-4024,-57,3,-2,-375,-66,-683
1,-1151,-1218,-4031,-59,2,-4,-375,-66,-683
1,-1129,-1189,-3980,-62,5,-8,-375,-66,-683
1,-1144,-1228,-4013,-66,9,-9,-375,-66,-683
1,-1170,-1203,-4020,-63,6,-5,-375,-66,-683
1,-1107,-1231,-4057,-59,10,-5,-375,-66,-683
1,-1132,-1220,-3987,-65,3,-4,-375,-66,-683
1,-1167,-1202,-4004,-59,10,3,-375,-66,-683
1,-1163,-1205,-4024,-59,13,3,-375,-66,-683
1,-1121,-1214,-4029,-60,11,11,-375,-66,-683
1,-1122,-1243,-4042,-62,13,6,-375,-66,-683
1,-1132,-1211,-4038,-59,5,9,-375,-66,-683
1,-1131,-1212,-4043,-52,12,5,-382,-58,-690
1,-1136,-1221,-4024,-60,6,-1,-382,-58,-690
1,-1123,-1242,-4015,-61,5,-5,-382,-58,-690
1,-1135,-1217,-4014,-58,10,-1,-382,-58,-690
1,-1154,-1208,-4049,-59,7,-7,-382,-58,-690
1,-1145,-1226,-4031,-61,6,-5,-382,-58,-690
1,-1117,-1243,-4040,-60,7,-10,-382,-58,-690
1,-1144,-1245,-4035,-59,12,-3,-382,-58,-690
1,-1133,-1209,-4002,-65,6,2,-382,-58,-690
1,-1124,-1214,-4047,-68,11,3,-382,-58,-690
1,-1125,-1226,-4038,-69,8,-2,-382,-58,-690
1,-1129,-1208,-4061,-64,2,1,-382,-58,-690
1,-1133,-1214,-4048,-65,4,-2,-382,-58,-690
1,-1119,-1221,-4008,-60,4,-7,-382,-58,-690
1,-1128,-1227,-4011,-65,5,-12,-382,-58,-690
1,-1126,-1223,-4065,-63,5,-14,-382,-58,-690
1,-1144,-1230,-4030,-69,5,-14,-377,-68,-688
1,-1157,-1225,-4000,-69,3,-20,-377,-68,-688
1,-1151,-1242,-4016,-71,1,-21,-377,-68,-688
1,-1142,-1220,-3990,-67,9,-19,-377,-68,-688
1,-1124,-1231,-4015,-67,5,-18,-377,-68,-688
1,-1157,-1253,-4056,-64,3,-17,-377,-68,-688
1,-1150,-1215,-4039,-68,5,-9,-377,-68,-688
1,-1140,-1231,-4002,-66,9,-7,-377,-68,-688
1,-1143,-1223,-4024,-62,-1,-4,-377,-68,-688
1,-1128,-1217,-4004,-61,6,-5,-377,-68,-688
1,-1136,-1254,-4053,-62,8,-5,-377,-68,-688
1,-1148,-1215,-4018,-65,0,-4,-377,-68,-688
1,-1132,-1228,-4025,-64,3,-2,-377,-68,-688
1,-1151,-1233,-4036,-65,3,-8,-377,-68,-688
1,-1131,-1224,-4036,-55,8,-3,-377,-68,-688
1,-1145,-1231,-4034,-61,4,-5,-377,-68,-688
1,-1131,-1232,-4018,-62,5,-5,-377,-68,-688
1,-1129,-1208,-4012,-62,8,-2,-377,-64,-683
1,-1124,-1242,-4013,-56,-4,-7,-377,-64,-683
1,-1107,-1230,-4074,-64,7,0,-377,-64,-683
1,-1145,-1218,-4028,-56,4,-1,-377,-64,-683
1,-1129,-1233,-4021,-53,3,-4,-377,-64,-683
1,-1140,-1223,-4030,-62,3,-10,-377,-64,-683
1,-1143,-1237,-4053,-65,5,-7,-377,-64,-683
1,-1130,-1224,-3998,-61,5,-6,-377,-64,-683
1,-1142,-1225,-4029,-66,9,-9,-377,-64,-683
1,-1162,-1192,-4015,-61,6,-3,-377,-64,-683
1,-1139,-1213,-4037,-71,6,-3,-377,-64,-683
1,-1153,-1223,-4022,-64,1,-7,-377,-64,-683
1,-1161,-1256,-4043,-69,4,-7,-377,-64,-683
1,-1123,-1230,-3986,-63,4,-6,-377,-64,-683
1,-1135,-1224,-4056,-64,8,-8,-377,-64,-683
1,-1152,-1231,-4009,-61,-2,-9,-377,-64,-683
1,-1138,-1226,-4022,-60,1,-14,-379,-58,-690
1,-1148,-1246,-4044,-72,3,-21,-379,-58,-690
1,-1134,-1222,-4034,-63,-2,-18,-379,-58,-690
1,-1132,-1241,-3996,-70,10,-16,-379,-58,-690
1,-1140,-1253,-4010,-70,3,-17,-379,-58,-690
1,-1157,-1224,-4002,-66,5,-11,-379,-58,-690
1,-1141,-1223,-4039,-62,-3,-7,-379,-58,-690
1,-1149,-1238,-4029,-69,11,-1,-379,-58,-690
1,-1158,-1253,-4014,-67,7,-4,-379,-58,-690
1,-1144,-1235,-4015,-61,8,-9,-379,-58,-690
1,-1121,-1216,-3998,-64,9,-7,-379,-58,-690
1,-1128,-1219,-4042,-59,5,-4,-379,-58,-690
1,-1144,-1219,-4022,-62,0,-4,-379,-58,-690
1,-1138,-1216,-3982,-59,-2,-7,-379,-58,-690
1,-1135,-1246,-3988,-58,0,-14,-379,-58,-690
1,-1117,-1197,-4022,-58,12,-6,-379,-58,-690
1,-1141,-1253,-4011,-61,9,-7,-379,-58,-690
1,-1170,-1243,-4056,-62,6,-2,-379,-58,-690
1,-1142,-1232,-4044,-54,8,1,-379,-58,-690
1,-1137,-1187,-4050,-55,2,3,-379,-58,-690
1,-1139,-1232,-4037,-58,9,-3,-379,-58,-690
1,-1125,-1218,-4025,-57,10,6,-379,-58,-690
1,-1133,-1212,-4036,-56,12,4,-379,-58,-690
1,-1119,-1202,-4038,-56,3,8,-379,-58,-690
1,-1133,-1225,-3988,-54,12,2,-379,-58,-690
1,-1145,-1199,-4038,-58,9,3,-379,-58,-690
1,-1164,-1240,-4006,-58,3,-1,-379,-58,-690
1,-1157,-1239,-3984,-57,14,2,-379,-58,-690
1,-1135,-1231,-4032,-58,3,6,-379,-58,-690
1,-1124,-1215,-4045,-51,8,0,-379,-58,-690
1,-1138,-1222,-3991,-61,10,0,-379,-58,-690
1,-1134,-1222,-3989,-61,12,-1,-379,-58,-690
1,-1140,-1230,-3996,-61,0,-4,-379,-58,-690
1,-1127,-1199,-4014,-59,12,-6,-372,-63,-685
1,-1140,-1223,-4056,-65,5,0,-372,-63,-685
1,-1104,-1207,-4023,-53,6,-5,-372,-63,-685
1,-1138,-1209,-4015,-59,7,-4,-372,-63,-685
1,-1152,-1223,-4088,-71,7,-4,-372,-63,-685
1,-1134,-1232,-4036,-63,2,-9,-372,-63,-685
1,-1134,-1234,-4025,-70,7,-10,-372,-63,-685
1,-1124,-1223,-4042,-68,4,-8,-372,-63,-685
1,-1118,-1246,-4014,-70,8,-11,-372,-63,-685
1,-1141,-1227,-4010,-62,0,-6,-372,-63,-685
1,-1129,-1234,-3987,-70,7,-11,-372,-63,-685
1,-1150,-1221,-4014,-68,2,-14,-372,-63,-685
1,-1127,-1222,-4019,-75,3,-11,-372,-63,-685
1,-1149,-1241,-4033,-71,1,-14,-372,-63,-685
1,-1147,-1237,-4014,-68,-1,-16,-372,-63,-685
1,-1132,-1226,-4063,-75,-4,-12,-372,-63,-685
1,-1145,-1215,-4038,-63,-1,-18,-381,-57,-691
1,-1127,-1211,-4026,-69,-1,-17,-381,-57,-691
1,-1130,-1235,-4038,-65,3,-12,-381,-57,-691
1,-1146,-1254,-4018,-67,3,-13,-381,-57,-691
1,-1144,-1238,-3998,-68,1,-12,-381,-57,-691
1,-1133,-1237,-3980,-74,2,-12,-381,-57,-691
1,-1122,-1238,-4038,-65,-6,-12,-381,-57,-691
1,-1147,-1218,-4034,-63,6,-11,-381,-57,-691
1,-1120,-1220,-4023,-58,9,-6,-381,-57,-691
1,-1150,-1247,-4027,-65,0,-6,-381,-57,-691
1,-1141,-1225,-4022,-57,2,-7,-381,-57,-691
1,-1145,-1229,-4044,-62,3,-7,-381,-57,-691
1,-1151,-1220,-4031,-59,8,0,-381,-57,-691
1,-1131,-1220,-4047,-61,0,-7,-381,-57,-691
1,-1120,-1212,-4027,-62,12,-1,-381,-57,-691
1,-1141,-1204,-4049,-61,10,-5,-381,-57,-691
1,-1120,-1219,-4060,-64,4,-2,-381,-57,-691
1,-1133,-1202,-4031,-55,2,-3,-377,-67,-690
1,-1123,-1220,-4020,-66,9,-3,-377,-67,-690
1,-1126,-1241,-4036,-57,2,-1,-377,-67,-690
1,-1150,-1223,-4016,-58,9,4,-377,-67,-690
1,-1145,-1210,-4027,-51,15,4,-377,-67,-690
1,-1139,-1232,-4008,-64,11,-3,-377,-67,-690
1,-1152,-1218,-4010,-58,8,5,-377,-67,-690
1,-1135,-1232,-4011,-57,7,8,-377,-67,-690
1,-1115,-1237,-4003,-58,12,4,-377,-67,-690
1,-1125,-1226,-3997,-57,10,6,-377,-67,-690
1,-1135,-1226,-4005,-54,11,2,-377,-67,-690
1,-1128,-1224,-4046,-56,5,4,-377,-67,-690
1,-1137,-1223,-4005,-55,12,1,-377,-67,-690
1,-1133,-1203,-4008,-65,12,3,-377,-67,-690
1,-1121,-1232,-4041,-56,-1,-1,-377,-67,-690
1,-1135,-1197,-4008,-61,16,1,-377,-67,-690
1,-1123,-1229,-4011,-54,6,0,-373,-65,-687
1,-1162,-1201,-4022,-62,8,-3,-373,-65,-687
1,-1109,-1237,-4012,-63,6,-8,-373,-65,-687
1,-1138,-1239,-4052,-62,9,-5,-373,-65,-687
1,-1125,-1229,-4027,-63,5,-15,-373,-65,-687
1,-1151,-1251,-4004,-61,-1,-9,-373,-65,-687
1,-1138,-1232,-4062,-68,7,-11,-373,-65,-687
1,-1134,-1219,-4010,-65,2,-6,-373,-65,-687
1,-1145,-1240,-4019,-67,-6,-12,-373,-65,-687
1,-1144,-1241,-4029,-66,4,-13,-373,-65,-687
1,-1151,-1225,-4026,-71,-1,-14,-373,-65,-687
1,-1148,-1240,-4072,-74,8,-10,-373,-65,-687
1,-1132,-1215,-4072,-66,0,-15,-373,-65,-687
1,-1160,-1260,-4046,-67,-1,-14,-373,-65,-687
1,-1103,-1229,-4047,-67,1,-17,-373,-65,-687
1,-1158,-1225,-4017,-66,5,-17,-373,-65,-687
1,-1127,-1228,-4028,-72,-1,-20,-382,-58,-690
1,-1147,-1231,-4043,-73,3,-15,-382,-58,-690
1,-1137,-1231,-4033,-69,4,-19,-382,-58,-690
1,-1117,-1231,-4006,-73,-2,-13,-382,-58,-690
1,-1123,-1214,-4033,-67,-3,-16,-382,-58,-690
1,-1166,-1208,-4034,-59,6,-11,-382,-58,-690
1,-1140,-1230,-3990,-61,1,-14,-382,-58,-690
1,-1136,-1238,-4022,-67,3,-13,-382,-58,-690
1,-1140,-1217,-4027,-66,3,-9,-382,-58,-690
1,-1130,-1230,-4031,-64,7,-13,-382,-58,-690
1,-1133,-1223,-4000,-63,6,-7,-382,-58,-690
1,-1154,-1222,-4042,-65,3,-2,-382,-58,-690
1,-1126,-1205,-4039,-61,6,-3,-382,-58,-690
1,-1129,-1208,-4027,-60,1,-6,-382,-58,-690
1,-1130,-1228,-4014,-56,9,-10,-382,-58,-690
1,-1121,-1210,-4021,-60,6,-6,-382,-58,-690
1,-1150,-1211,-4029,-55,6,-3,-382,-58,-690
1,-1159,-1225,-4017,-64,6,-2,-377,-67,-689
1,-1147,-1239,-4045,-64,5,-4,-377,-67,-689
1,-1143,-1234,-4016,-63,10,-3,-377,-67,-689
1,-1133,-1236,-4047,-60,3,-3,-377,-67,-689
1,-1131,-1231,-4040,-61,14,5,-377,-67,-689
1,-1142,-1219,-4034,-63,4,-3,-377,-67,-689
1,-1152,-1227,-4025,-55,9,0,-377,-67,-689
1,-1140,-1232,-3985,-63,6,-5,-377,-67,-689
1,-1138,-1210,-4020,-59,12,3,-377,-67,-689
1,-1141,-1239,-4036,-62,8,2,-377,-67,-689
1,-1144,-1208,-4047,-64,2,-1,-377,-67,-689
1,-1124,-1222,-4002,-58,7,-8,-377,-67,-689
1,-1133,-1202,-4018,-61,18,-1,-377,-67,-689
1,-1150,-1209,-3977,-61,12,-1,-377,-67,-689
1,-1138,-1220,-4028,-55,0,0,-377,-67,-689
1,-1128,-1226,-4067,-59,14,-3,-377,-67,-689
1,-1112,-1247,-4007,-58,9,-5,-374,-65,-688
1,-1146,-1220,-4013,-60,8,5,-374,-65,-688
1,-1135,-1218,-4021,-61,9,0,-374,-65,-688
1,-1153,-1212,-4040,-63,3,-8,-374,-65,-688
1,-1140,-1245,-4045,-65,7,-6,-374,-65,-688
1,-1118,-1217,-4053,-64,2,-1,-374,-65,-688
1,-1127,-1244,-4036,-58,5,-14,-374,-65,-688
1,-1148,-1216,-4015,-64,9,-4,-374,-65,-688
1,-1143,-1218,-4033,-65,5,-9,-374,-65,-688
1,-1126,-1201,-4032,-68,3,-14,-374,-65,-688
1,-1152,-1238,-3999,-63,10,-9,-374,-65,-688
1,-1130,-1247,-4043,-70,3,-13,-374,-65,-688
1,-1120,-1246,-4012,-60,-1,-12,-374,-65,-688
1,-1129,-1231,-4021,-60,3,-12,-374,-65,-688
1,-1130,-1225,-4023,-66,3,-14,-374,-65,-688
1,-1156,-1220,-4010,-61,4,-12,-374,-65,-688
1,-1133,-1234,-4032,-64,6,-13,-378,-58,-689
1,-1114,-1234,-4013,-68,2,-10,-378,-58,-689
1,-1100,-1262,-4046,-63,6,-7,-378,-58,-689
1,-1116,-1226,-4049,-68,6,-5,-378,-58,-689
1,-1142,-1221,-4039,-67,5,-7,-378,-58,-689
1,-1138,-1219,-3966,-64,5,-6,-378,-58,-689
1,-1116,-1220,-4013,-64,3,-3,-378,-58,-689
1,-1137,-1248,-4022,-57,4,-4,-378,-58,-689
1,-1135,-1237,-4048,-61,3,-1,-378,-58,-689
1,-1134,-1235,-4017,-57,6,1,-378,-58,-689
1,-1147,-1231,-3998,-58,5,-5,-378,-58,-689
1,-1128,-1211,-4017,-59,11,-1,-378,-58,-689
1,-1126,-1230,-4041,-58,6,-8,-378,-58,-689
1,-1124,-1226,-4047,-59,4,1,-378,-58,-689
1,-1121,-1216,-3989,-55,6,-3,-378,-58,-689
1,-1138,-1223,-4038,-59,2,-10,-378,-58,-689
1,-1119,-1214,-4028,-61,6,-1,-378,-58,-689
1,-1136,-1240,-4002,-58,7,-5,-376,-67,-689
1,-1137,-1238,-4020,-62,8,-6,-376,-67,-689
1,-1142,-1224,-4046,-65,5,-5,-376,-67,-689
1,-1140,-1200,-4025,-61,10,-4,-376,-67,-689
1,-1129,-1233,-3967,-66,5,-1,-376,-67,-689
1,-1131,-1220,-4027,-66,11,-8,-376,-67,-689
1,-1142,-1244,-3995,-61,8,-5,-376,-67,-689
1,-1124,-1234,-4003,-68,3,-6,-376,-67,-689
1,-1143,-1202,-3995,-65,4,-12,-376,-67,-689
1,-1133,-1208,-4018,-68,4,-6,-376,-67,-689
1,-1151,-1243,-4050,-59,2,-15,-376,-67,-689
1,-1144,-1235,-4027,-70,0,-15,-376,-67,-689
1,-1108,-1233,-4029,-60,11,-11,-376,-67,-689
1,-1143,-1242,-4028,-69,8,-16,-376,-67,-689
1,-1143,-1238,-3989,-65,-4,-9,-376,-67,-689
1,-1128,-1223,-4009,-55,-2,-12,-376,-67,-689
1,-1135,-1217,-4064,-66,6,-9,-373,-64,-686
1,-1125,-1216,-4012,-64,4,-6,-373,-64,-686
1,-1134,-1228,-4036,-64,7,-10,-373,-64,-686
1,-1132,-1216,-4007,-60,4,-8,-373,-64,-686
1,-1144,-1226,-4015,-64,0,-3,-373,-64,-686
1,-1140,-1221,-4013,-68,9,-6,-373,-64,-686
1,-1160,-1220,-4052,-62,8,-7,-373,-64,-686
1,-1138,-1220,-4038,-65,10,-2,-373,-64,-686
1,-1127,-1214,-4021,-67,4,0,-373,-64,-686
1,-1142,-1229,-4011,-61,13,-3,-373,-64,-686
1,-1155,-1220,-3999,-66,4,-3,-373,-64,-686
1,-1136,-1236,-3988,-58,8,2,-373,-64,-686
1,-1122,-1201,-3989,-66,3,-5,-373,-64,-686
1,-1145,-1251,-4008,-57,9,-1,-373,-64,-686
1,-1119,-1241,-4061,-57,10,-13,-373,-64,-686
1,-1124,-1218,-4051,-58,7,-6,-373,-64,-686
1,-1136,-1237,-4022,-61,6,0,-373,-58,-690
1,-1151,-1217,-4030,-58,8,-7,-379,-58,-690
1,-1139,-1211,-4003,-58,8,0,-379,-58,-690
1,-1152,-1231,-4035,-66,7,-1,-379,-58,-690
1,-1130,-1214,-4013,-62,7,-7,-379,-58,-690
1,-1135,-1208,-4062,-61,2,-4,-379,-58,-690
1,-1119,-1246,-4038,-63,7,-2,-379,-58,-690
1,-1135,-1220,-4013,-64,6,-6,-379,-58,-690
1,-1125,-1218,-4049,-62,6,0,-379,-58,-690
1,-1132,-1220,-4034,-64,7,-2,-379,-58,-690
1,-1126,-1221,-4020,-64,11,-9,-379,-58,-690
1,-1116,-1217,-4063,-63,3,-8,-379,-58,-690
1,-1120,-1226,-4005,-69,3,-12,-379,-58,-690
1,-1130,-1198,-4035,-65,7,-15,-379,-58,-690
1,-1140,-1218,-4029,-73,2,-12,-379,-58,-690
1,-1146,-1226,-4038,-66,9,-13,-379,-58,-690
1,-1157,-1236,-4010,-71,6,-15,-379,-58,-690
1,-1123,-1204,-4031,-63,3,-14,-379,-67,-688
1,-1111,-1223,-4075,-68,9,-9,-379,-67,-688
1,-1142,-1230,-4029,-67,-1,-11,-379,-67,-688
1,-1166,-1238,-4048,-68,8,-17,-379,-67,-688
1,-1125,-1230,-3978,-67,7,-8,-379,-67,-688
1,-1159,-1222,-4051,-65,8,-8,-379,-67,-688
1,-1148,-1246,-4008,-72,4,-10,-379,-67,-688
1,-1143,-1244,-4008,-67,10,-7,-379,-67,-688
1,-1120,-1240,-4019,-60,4,0,-379,-67,-688
1,-1124,-1239,-4025,-60,3,-5,-379,-67,-688
1,-1138,-1242,-4001,-55,10,-1,-379,-67,-688
1,-1134,-1237,-4017,-64,12,-7,-379,-67,-688
1,-1136,-1232,-4041,-58,6,-10,-379,-67,-688
1,-1118,-1189,-4016,-55,7,-5,-379,-67,-688
1,-1160,-1228,-4052,-51,8,-3,-379,-67,-688
1,-1133,-1216,-4029,-53,7,3,-379,-67,-688
1,-1138,-1209,-4015,-54,12,4,-374,-65,-687
1,-1137,-1225,-4026,-57,7,6,-374,-65,-687
1,-1142,-1209,-4031,-56,14,7,-374,-65,-687
1,-1117,-1216,-3987,-55,6,11,-374,-65,-687
1,-1152,-1222,-4051,-52,10,7,-374,-65,-687
1,-1148,-1207,-4050,-58,11,7,-374,-65,-687
1,-1151,-1208,-4064,-51,6,2,-374,-65,-687
1,-1129,-1214,-4021,-56,11,7,-374,-65,-687
1,-1133,-1216,-4067,-58,14,9,-374,-65,-687
1,-1118,-1231,-4062,-60,7,3,-374,-65,-687
1,-1153,-1227,-4027,-57,6,-5,-374,-65,-687
1,-1116,-1211,-4026,-62,4,-1,-374,-65,-687
1,-1147,-1222,-4031,-61,5,-8,-374,-65,-687
1,-1145,-1256,-3992,-63,3,-10,-374,-65,-687
1,-1144,-1238,-4013,-67,5,-9,-374,-65,-687
1,-1127,-1227,-4030,-61,6,-11,-374,-65,-687
1,-1102,-1212,-4080,-66,4,-13,-374,-65,-687
1,-1134,-1199,-4029,-72,4,-16,-380,-61,-689
1,-1142,-1210,-4036,-68,1,-15,-380,-61,-689
1,-1130,-1247,-4021,-70,-2,-16,-380,-61,-689
1,-1124,-1242,-3999,-73,2,-14,-380,-61,-689
1,-1118,-1206,-4014,-71,3,-16,-380,-61,-689
1,-1117,-1207,-4023,-74,3,-21,-380,-61,-689
1,-1127,-1239,-4032,-76,-3,-21,-380,-61,-689
1,-1161,-1229,-4026,-65,1,-22,-380,-61,-689
1,-1140,-1247,-4043,-75,-1,-23,-380,-61,-689
1,-1130,-1238,-4030,-72,2,-23,-380,-61,-689
1,-1130,-1211,-4021,-74,0,-20,-380,-61,-689
1,-1137,-1230,-4026,-72,6,-13,-380,-61,-689
1,-1152,-1246,-3996,-67,-2,-24,-380,-61,-689
1,-1156,-1245,-4044,-71,-5,-13,-380,-61,-689
1,-1148,-1234,-4074,-68,6,-18,-380,-61,-689
1,-1132,-1215,-4027,-66,5,-11,-380,-61,-689
1,-1166,-1235,-4015,-68,6,-17,-376,-65,-689
1,-1149,-1187,-4012,-62,7,-7,-376,-65,-689
1,-1127,-1219,-4028,-66,4,-9,-376,-65,-689
1,-1155,-1207,-4003,-63,6,-2,-376,-65,-689
1,-1138,-1241,-3968,-66,3,-5,-376,-65,-689
1,-1135,-1208,-3980,-60,5,-3,-376,-65,-689
1,-1130,-1213,-4050,-62,4,-5,-376,-65,-689
1,-1152,-1212,-4025,-56,11,5,-376,-65,-689
1,-1135,-1212,-4034,-65,7,-4,-376,-65,-689
1,-1152,-1255,-3994,-59,7,4,-376,-65,-689
1,-1171,-1215,-4008,-54,11,7,-376,-65,-689
1,-1156,-1225,-4016,-59,12,4,-376,-65,-689
1,-1123,-1210,-4026,-60,18,5,-376,-65,-689
1,-1142,-1195,-3997,-55,10,12,-376,-65,-689
1,-1151,-1211,-4053,-54,13,5,-376,-65,-689
1,-1117,-1205,-4016,-58,13,9,-376,-65,-689
1,-1164,-1226,-3990,-51,13,2,-376,-63,-687
1,-1145,-1231,-4043,-57,9,8,-376,-63,-687
1,-1157,-1220,-4045,-62,10,3,-376,-63,-687
1,-1138,-1199,-4014,-54,13,9,-376,-63,-687
1,-1126,-1234,-4040,-54,8,3,-376,-63,-687
1,-1142,-1236,-4046,-62,9,3,-376,-63,-687
1,-1129,-1209,-4010,-56,8,2,-376,-63,-687
1,-1125,-1235,-4018,-59,7,0,-376,-63,-687
1,-1124,-1222,-4016,-68,15,-1,-376,-63,-687
1,-1126,-1221,-4033,-53,11,-2,-376,-63,-687
1,-1116,-1224,-4028,-65,9,-8,-376,-63,-687
1,-1136,-1239,-4052,-59,9,-7,-376,-63,-687
1,-1121,-1213,-4031,-67,-1,-16,-376,-63,-687
1,-1129,-1266,-4032,-68,3,-15,-376,-63,-687
1,-1125,-1235,-4013,-68,10,-11,-376,-63,-687
1,-1150,-1243,-4014,-66,-2,-16,-376,-63,-687
1,-1128,-1213,-4042,-68,-4,-11,-376,-63,-687
1,-1130,-1217,-4034,-64,0,-10,-378,-56,-689
1,-1124,-1232,-4003,-64,0,-20,-378,-56,-689
1,-1124,-1226,-4065,-70,1,-14,-378,-56,-689
1,-1148,-1199,-4002,-71,4,-20,-378,-56,-689
1,-1139,-1231,-4053,-67,0,-16,-378,-56,-689
1,-1133,-1221,-4038,-65,3,-18,-378,-56,-689
1,-1132,-1230,-4011,-67,3,-15,-378,-56,-689
1,-1146,-1219,-4061,-72,4,-16,-378,-56,-689
1,-1131,-1234,-4021,-64,8,-15,-378,-56,-689
1,-1142,-1244,-4019,-63,5,-11,-378,-56,-689
1,-1147,-1221,-4024,-65,1,-5,-378,-56,-689
1,-1117,-1241,-4050,-57,-2,-11,-378,-56,-689
1,-1145,-1224,-4041,-64,6,-7,-378,-56,-689
1,-1143,-1218,-3984,-58,10,-9,-378,-56,-689
1,-1118,-1218,-4029,-58,6,-7,-378,-56,-689
1,-1131,-1231,-4055,-52,7,-5,-378,-56,-689
1,-1156,-1215,-4029,-57,10,-2,-378,-69,-690
1,-1121,-1214,-4031,-53,12,-4,-378,-69,-690
1,-1175,-1205,-4002,-56,14,2,-378,-69,-690
1,-1134,-1202,-4004,-56,7,5,-378,-69,-690
1,-1149,-1243,-4028,-57,4,-1,-378,-69,-690
1,-1153,-1213,-4030,-52,13,8,-378,-69,-690
1,-1159,-1199,-4001,-53,7,7,-378,-69,-690
1,-1167,-1224,-3987,-57,11,8,-378,-69,-690
1,-1125,-1228,-4023,-56,10,8,-378,-69,-690
1,-1130,-1219,-4015,-54,11,17,-378,-69,-690
1,-1135,-1233,-4032,-50,7,10,-378,-69,-690
1,-1117,-1218,-4017,-54,5,5,-378,-69,-690
1,-1149,-1231,-4035,-54,5,2,-378,-69,-690
1,-1146,-1242,-4011,-57,12,1,-378,-69,-690
1,-1123,-1235,-4013,-53,9,3,-378,-69,-690
1,-1137,-1216,-4001,-53,6,0,-378,-69,-690
1,-1133,-1237,-4013,-56,9,0,-375,-67,-687
1,-1149,-1233,-4023,-55,8,-1,-375,-67,-687
1,-1129,-1238,-4047,-51,6,-2,-375,-67,-687
1,-1145,-1239,-4047,-60,9,-3,-375,-67,-687
1,-1156,-1231,-4026,-61,14,0,-375,-67,-687
1,-1148,-1233,-4028,-63,9,-4,-375,-67,-687
1,-1125,-1232,-4016,-66,12,-4,-375,-67,-687
1,-1135,-1234,-4047,-66,6,-8,-375,-67,-687
1,-1123,-1222,-4025,-64,8,-9,-375,-67,-687
1,-1133,-1249,-4020,-66,9,-14,-375,-67,-687
1,-1134,-1236,-4045,-78,3,-21,-375,-67,-687
1,-1139,-1200,-4011,-70,1,-22,-375,-67,-687
1,-1115,-1225,-4037,-73,1,-24,-375,-67,-687
1,-1129,-1225,-4024,-76,0,-31,-375,-67,-687
1,-1152,-1235,-4037,-67,-2,-25,-375,-67,-687
1,-1133,-1232,-4036,-75,-3,-25,-375,-67,-687
1,-1130,-1224,-4031,-75,2,-30,-375,-67,-687
1,-1114,-1217,-4038,-87,4,-30,-379,-62,-690
1,-1114,-1230,-3986,-81,0,-25,-379,-62,-690
1,-1133,-1234,-3993,-73,5,-13,-379,-62,-690
1,-1139,-1213,-4047,-75,0,-18,-379,-62,-690
1,-1141,-1231,-4039,-74,12,-8,-379,-62,-690
1,-1120,-1225,-4031,-61,0,-3,-379,-62,-690
1,-1122,-1239,-4020,-59,-1,4,-379,-62,-690
1,-1119,-1229,-4008,-52,3,11,-379,-62,-690
1,-1139,-1234,-4002,-50,7,9,-379,-62,-690
1,-1147,-1210,-4036,-45,17,5,-379,-62,-690
1,-1141,-1231,-4033,-45,22,12,-379,-62,-690
1,-1125,-1212,-4028,-44,24,16,-379,-62,-690
1,-1117,-1225,-4010,-40,23,27,-379,-62,-690
1,-1121,-1196,-3985,-49,16,32,-379,-62,-690
1,-1141,-1229,-4009,-44,18,37,-379,-62,-690
1,-1147,-1230,-4046,-42,15,40,-379,-62,-690
1,-1102,-1245,-4045,-54,17,29,-377,-65,-692
1,-1116,-1228,-4048,-49,15,11,-377,-65,-692
1,-1111,-1232,-4038,-62,12,8,-377,-65,-692
1,-1121,-1211,-4041,-60,9,-7,-377,-65,-692
1,-1108,-1235,-4040,-65,2,-16,-377,-65,-692
1,-1114,-1234,-4038,-73,0,-25,-377,-65,-692
1,-1124,-1219,-3989,-67,-4,-31,-377,-65,-692
1,-1126,-1198,-4029,-71,-12,-32,-377,-65,-692
1,-1155,-1251,-4006,-80,-10,-42,-377,-65,-692
1,-1131,-1263,-4056,-84,-12,-52,-377,-65,-692
1,-1140,-1236,-4049,-93,-15,-57,-377,-65,-692
1,-1142,-1217,-3987,-100,-9,-69,-377,-65,-692
1,-1123,-1218,-4026,-103,-9,-62,-377,-65,-692
1,-1174,-1211,-4028,-106,-18,-56,-377,-65,-692
1,-1136,-1195,-4017,-98,-19,-55,-377,-65,-692
1,-1150,-1216,-4015,-100,-18,-57,-377,-65,-692
1,-1157,-1242,-4018,-98,-28,-60,-374,-67,-686
1,-1130,-1199,-4010,-98,-16,-61,-374,-67,-686
1,-1139,-1210,-4003,-93,-17,-62,-374,-67,-686
1,-1154,-1217,-3998,-97,-17,-64,-374,-67,-686
1,-1145,-1201,-4051,-77,-14,-55,-374,-67,-686
1,-1162,-1190,-4029,-71,-16,-50,-374,-67,-686
1,-1155,-1237,-4046,-66,-9,-42,-374,-67,-686
1,-1139,-1219,-4029,-62,-10,-33,-374,-67,-686
1,-1151,-1192,-4038,-49,0,-20,-374,-67,-686
1,-1165,-1216,-4026,-49,2,-7,-374,-67,-686
1,-1143,-1169,-4068,-50,17,4,-374,-67,-686
1,-1163,-1202,-4085,-50,28,29,-374,-67,-686
1,-1152,-1227,-4022,-45,25,46,-374,-67,-686
1,-1151,-1206,-4025,-47,37,66,-374,-67,-686
1,-1133,-1254,-4027,-46,33,73,-374,-67,-686
1,-1137,-1191,-4025,-42,38,71,-374,-67,-686
1,-1127,-1217,-4001,-47,31,67,-379,-61,-691
1,-1139,-1182,-4004,-41,37,60,-379,-61,-691
1,-1116,-1232,-3994,-38,32,57,-379,-61,-691
1,-1133,-1233,-3970,-34,20,38,-379,-61,-691
1,-1140,-1192,-3977,-31,8,24,-379,-61,-691
1,-1119,-1232,-3975,-27,-3,6,-379,-61,-691
1,-1134,-1257,-4044,-18,2,-12,-379,-61,-691
1,-1170,-1249,-4028,-22,-3,-21,-379,-61,-691
1,-1146,-1254,-4029,-31,-8,-28,-379,-61,-691
1,-1151,-1244,-4052,-36,1,-32,-379,-61,-691
1,-1158,-1251,-4078,-47,4,-28,-379,-61,-691
1,-1162,-1222,-4006,-56,13,-13,-379,-61,-691
1,-1148,-1242,-4039,-76,26,8,-379,-61,-691
1,-1166,-1232,-4030,-83,27,29,-379,-61,-691
1,-1171,-1193,-4015,-88,33,43,-379,-61,-691
1,-1106,-1242,-4000,-87,34,49,-379,-61,-691
1,-1151,-1245,-3962,-94,25,45,-377,-67,-688
1,-1103,-1242,-3990,-82,24,28,-377,-67,-688
1,-1089,-1250,-4005,-73,4,11,-377,-67,-688
1,-1093,-1219,-4019,-71,-6,-16,-377,-67,-688
1,-1117,-1205,-4033,-66,-14,-38,-377,-67,-688
1,-1117,-1238,-4021,-48,-20,-57,-377,-67,-688
1,-1123,-1225,-4059,-57,-13,-69,-377,-67,-688
1,-1174,-1201,-4094,-55,-19,-66,-377,-67,-688
1,-1131,-1210,-4052,-55,-1,-55,-377,-67,-688
1,-1140,-1220,-4034,-63,9,-27,-377,-67,-688
1,-1161,-1236,-4044,-65,22,6,-377,-67,-688
1,-1148,-1180,-4076,-71,31,36,-377,-67,-688
1,-1132,-1196,-4047,-68,35,59,-377,-67,-688
1,-1128,-1222,-4018,-69,28,74,-377,-67,-688
1,-1113,-1208,-4030,-69,33,85,-377,-67,-688
1,-1132,-1222,-4041,-63,32,71,-377,-67,-688
1,-1056,-1225,-4055,-55,25,56,-377,-67,-688
1,-1101,-1212,-4001,-53,13,26,-376,-65,-684
1,-1101,-1224,-4018,-47,8,10,-376,-65,-684
1,-1096,-1221,-4046,-36,5,-16,-376,-65,-684
1,-1114,-1230,-4030,-38,4,-27,-376,-65,-684
1,-1119,-1204,-4006,-36,-3,-41,-376,-65,-684
1,-1138,-1245,-4035,-43,-2,-29,-376,-65,-684
1,-1118,-1246,-4081,-45,3,-17,-376,-65,-684
1,-1157,-1211,-3998,-54,7,-16,-376,-65,-684
1,-1128,-1254,-4047,-58,4,5,-376,-65,-684
1,-1157,-1214,-4016,-70,12,9,-376,-65,-684
1,-1123,-1233,-4034,-75,12,14,-376,-65,-684
1,-1122,-1264,-4009,-75,9,9,-376,-65,-684
1,-1142,-1241,-3975,-80,9,0,-376,-65,-684
1,-1099,-1235,-3997,-74,-2,-9,-376,-65,-684
1,-1118,-1210,-4005,-80,-3,-29,-376,-65,-684
1,-1142,-1241,-3979,-82,-6,-43,-376,-65,-684
1,-1122,-1236,-4027,-80,-7,-51,-378,-58,-690
1,-1126,-1226,-4052,-76,-12,-57,-378,-58,-690
1,-1136,-1219,-4038,-74,-20,-57,-378,-58,-690
1,-1127,-1223,-4031,-70,-26,-59,-378,-58,-690
1,-1111,-1215,-4021,-72,-17,-55,-378,-58,-690
1,-1141,-1226,-4005,-77,-12,-45,-378,-58,-690
1,-1162,-1233,-4023,-75,-15,-43,-378,-58,-690
1,-1162,-1245,-4038,-73,-7,-33,-378,-58,-690
1,-1148,-1224,-4031,-73,0,-23,-378,-58,-690
1,-1139,-1218,-4024,-74,6,-15,-378,-58,-690
1,-1120,-1225,-3988,-68,4,-6,-378,-58,-690
1,-1144,-1218,-4066,-69,8,8,-378,-58,-690
1,-1156,-1230,-4000,-67,7,6,-378,-58,-690
1,-1141,-1201,-4027,-63,14,19,-378,-58,-690
1,-1137,-1231,-4009,-59,10,12,-378,-58,-690
1,-1164,-1202,-4019,-52,12,17,-378,-58,-690
1,-1108,-1237,-3976,-52,8,11,-378,-64,-688
1,-1109,-1228,-4025,-40,3,0,-378,-64,-688
1,-1121,-1214,-4016,-40,6,0,-378,-64,-688
1,-1143,-1228,-4021,-48,3,-3,-378,-64,-688
1,-1150,-1208,-4017,-38,0,-11,-378,-64,-688
1,-1136,-1232,-4002,-45,8,-5,-378,-64,-688
1,-1151,-1251,-4005,-45,12,-9,-378,-64,-688
1,-1147,-1254,-4026,-54,17,-6,-378,-64,-688
1,-1152,-1216,-4036,-55,11,4,-378,-64,-688
1,-1154,-1239,-4024,-72,17,6,-378,-64,-688
1,-1160,-1216,-4046,-66,12,11,-378,-64,-688
1,-1143,-1223,-4012,-78,13,2,-378,-64,-688
1,-1140,-1245,-4025,-82,17,10,-378,-64,-688
1,-1151,-1242,-3988,-85,8,-6,-378,-64,-688
1,-1133,-1235,-4047,-81,-5,-15,-378,-64,-688
1,-1139,-1204,-4006,-82,0,-34,-378,-64,-688
1,-1122,-1260,-3993,-84,-10,-42,-378,-66,-684
1,-1132,-1229,-4035,-78,-9,-58,-375,-66,-684
1,-1137,-1228,-4043,-85,-13,-58,-375,-66,-684
1,-1175,-1224,-4009,-78,-14,-61,-375,-66,-684
1,-1142,-1209,-4010,-85,-6,-52,-375,-66,-684
1,-1155,-1220,-4026,-87,-8,-47,-375,-66,-684
1,-1151,-1208,-3995,-86,-1,-40,-375,-66,-684
1,-1147,-1193,-4037,-82,1,-29,-375,-66,-684
1,-1158,-1182,-3991,-87,2,-9,-375,-66,-684
1,-1142,-1206,-3990,-78,12,-9,-375,-66,-684
1,-1135,-1214,-4040,-71,4,3,-375,-66,-684
1,-1138,-1221,-4043,-71,12,8,-375,-66,-684
1,-1139,-1226,-4047,-64,10,8,-375,-66,-684
1,-1129,-1218,-3991,-52,5,10,-375,-66,-684
1,-1126,-1232,-4023,-49,13,5,-375,-66,-684
1,-1142,-1198,-4026,-47,16,7,-375,-66,-684
1,-1141,-1196,-4039,-51,11,1,-375,-66,-684
1,-1143,-1211,-4023,-44,7,14,-377,-57,-687
1,-1118,-1222,-3988,-43,14,15,-377,-57,-687
1,-1133,-1235,-4014,-39,15,21,-377,-57,-687
1,-1144,-1240,-4061,-43,22,30,-377,-57,-687
1,-1134,-1207,-4016,-41,14,33,-377,-57,-687
1,-1137,-1221,-4005,-50,13,32,-377,-57,-687
1,-1116,-1222,-4017,-50,22,29,-377,-57,-687
1,-1141,-1242,-4018,-49,24,30,-377,-57,-687
1,-1128,-1217,-4025,-56,9,31,-377,-57,-687
1,-1133,-1227,-4035,-57,15,20,-377,-57,-687
1,-1121,-1211,-4021,-59,15,11,-377,-57,-687
1,-1111,-1215,-4011,-60,6,-1,-377,-57,-687
1,-1105,-1218,-4003,-60,8,1,-377,-57,-687
1,-1125,-1224,-4024,-67,1,-5,-377,-57,-687
1,-1127,-1229,-4046,-63,4,-17,-377,-57,-687
1,-1108,-1217,-4038,-65,-1,-20,-377,-57,-687
1,-1147,-1211,-4046,-72,-1,-27,-381,-64,-691
1,-1123,-1222,-3987,-71,-4,-27,-381,-64,-691
1,-1141,-1234,-4013,-75,-8,-31,-381,-64,-691
1,-1154,-1233,-4012,-73,-3,-38,-381,-64,-691
1,-1139,-1199,-4031,-76,2,-39,-381,-64,-691
1,-1155,-1215,-4008,-80,-2,-40,-381,-64,-691
1,-1162,-1220,-4043,-78,2,-41,-381,-64,-691
1,-1128,-1200,-4052,-79,-11,-37,-381,-64,-691
1,-1148,-1204,-4055,-85,0,-32,-381,-64,-691
1,-1146,-1205,-4024,-79,-3,-32,-381,-64,-691
1,-1130,-1214,-4025,-76,-4,-26,-381,-64,-691
1,-1140,-1221,-4025,-73,-5,-27,-381,-64,-691
1,-1147,-1215,-4027,-75,-4,-19,-381,-64,-691
1,-1152,-1235,-4052,-65,-2,-14,-381,-64,-691
1,-1134,-1219,-4007,-57,2,-11,-381,-64,-691
1,-1150,-1217,-4026,-58,-6,-6,-381,-64,-691
1,-1131,-1199,-4020,-51,0,-2,-377,-67,-685
1,-1169,-1233,-3998,-60,9,1,-377,-67,-685
1,-1139,-1209,-4024,-46,12,8,-377,-67,-685
1,-1135,-1212,-4044,-39,15,16,-377,-67,-685
1,-1146,-1248,-4017,-36,14,28,-377,-67,-685
1,-1113,-1232,-4011,-36,9,34,-377,-67,-685
1,-1141,-1220,-4020,-37,21,36,-377,-67,-685
1,-1128,-1248,-4035,-27,21,48,-377,-67,-685
1,-1114,-1245,-4054,-30,22,53,-377,-67,-685
1,-1147,-1239,-4020,-22,20,54,-377,-67,-685
1,-1165,-1221,-4017,-20,26,56,-377,-67,-685
1,-1125,-1233,-4014,-28,33,61,-377,-67,-685
1,-1107,-1243,-4023,-26,23,56,-377,-67,-685
1,-1103,-1269,-4061,-28,32,48,-377,-67,-685
1,-1114,-1225,-4018,-27,30,48,-377,-67,-685
1,-1107,-1243,-3968,-37,25,48,-377,-67,-685
1,-1114,-1238,-4035,-32,27,41,-377,-67,-685
1,-1101,-1246,-4023,-44,26,41,-377,-67,-685
1,-1117,-1261,-4024,-47,22,36,-377,-67,-685
1,-1134,-1252,-4030,-49,17,21,-377,-67,-685
1,-1099,-1248,-4023,-58,7,10,-377,-67,-685
1,-1115,-1245,-4049,-56,8,3,-377,-67,-685
1,-1110,-1249,-4034,-64,10,-1,-377,-67,-685
1,-1109,-1257,-4057,-70,3,-17,-377,-67,-685
1,-1109,-1249,-4013,-83,3,-21,-377,-67,-685
1,-1138,-1247,-4013,-79,1,-33,-377,-67,-685
1,-1134,-1232,-4043,-89,0,-39,-377,-67,-685
1,-1136,-1246,-4014,-95,-11,-44,-377,-67,-685
1,-1130,-1234,-4031,-100,-11,-50,-377,-67,-685
1,-1101,-1227,-4016,-102,-14,-53,-377,-67,-685
1,-1145,-1232,-4003,-105,-12,-58,-377,-67,-685
1,-1146,-1212,-4062,-107,-16,-69,-377,-67,-685
1,-1145,-1218,-4030,-104,-10,-61,-377,-67,-685
1,-1152,-1244,-4021,-103,-9,-69,-377,-65,-687
1,-1118,-1209,-4016,-104,-16,-72,-377,-65,-687
1,-1125,-1216,-3964,-101,-17,-74,-377,-65,-687
1,-1159,-1208,-4010,-104,-15,-71,-377,-65,-687
1,-1147,-1222,-4002,-98,-19,-67,-377,-65,-687
1,-1125,-1207,-4013,-92,-12,-76,-377,-65,-687
1,-1159,-1237,-4039,-97,-18,-62,-377,-65,-687
1,-1152,-1229,-4026,-89,-13,-53,-377,-65,-687
1,-1147,-1198,-4011,-90,-7,-44,-377,-65,-687
1,-1162,-1199,-4051,-81,-12,-41,-377,-65,-687
1,-1145,-1207,-4035,-75,-8,-30,-377,-65,-687
1,-1146,-1197,-4052,-76,-7,-22,-377,-65,-687
1,-1174,-1208,-4028,-68,-7,-21,-377,-65,-687
1,-1156,-1223,-3981,-67,-4,-19,-377,-65,-687
1,-1118,-1200,-4003,-57,2,-14,-377,-65,-687
1,-1161,-1192,-4041,-60,-6,-10,-377,-65,-687
1,-1150,-1213,-4028,-60,8,-3,-377,-65,-688
1,-1131,-1220,-4038,-56,8,-6,-377,-65,-688
1,-1147,-1206,-4040,-53,5,-2,-377,-65,-688
1,-1154,-1210,-4054,-51,4,2,-377,-65,-688
1,-1126,-1208,-4010,-55,11,5,-377,-65,-688
1,-1167,-1197,-4053,-51,8,10,-377,-65,-688
1,-1179,-1225,-3998,-53,9,13,-377,-65,-688
1,-1163,-1217,-4037,-47,13,9,-377,-65,-688
1,-1130,-1202,-4030,-51,3,13,-377,-65,-688
1,-1153,-1202,-4015,-49,11,15,-377,-65,-688
1,-1130,-1209,-3993,-53,10,8,-377,-65,-688
1,-1148,-1207,-4031,-52,13,9,-377,-65,-688
1,-1135,-1201,-4021,-56,10,11,-377,-65,-688
1,-1125,-1211,-4071,-53,17,15,-377,-65,-688
1,-1163,-1218,-4017,-52,23,13,-377,-65,-688
1,-1122,-1209,-4007,-50,18,17,-377,-65,-688
1,-1127,-1226,-3996,-47,14,20,-381,-58,-689
1,-1131,-1226,-4031,-50,15,23,-381,-58,-689
1,-1128,-1212,-3971,-54,13,24,-381,-58,-689
1,-1130,-1220,-4039,-47,14,23,-381,-58,-689
1,-1145,-1209,-4031,-47,16,18,-381,-58,-689
1,-1145,-1209,-4048,-44,22,23,-381,-58,-689
1,-1154,-1234,-4002,-51,19,16,-381,-58,-689
1,-1111,-1232,-4036,-44,24,19,-381,-58,-689
1,-1130,-1239,-3969,-43,26,20,-381,-58,-689
1,-1133,-1229,-4021,-49,19,18,-381,-58,-689
1,-1142,-1221,-4062,-53,25,22,-381,-58,-689
1,-1121,-1236,-4016,-46,20,24,-381,-58,-689
1,-1141,-1206,-4029,-56,14,24,-381,-58,-689
1,-1115,-1222,-4047,-49,21,28,-381,-58,-689
1,-1139,-1228,-4031,-49,22,21,-381,-58,-689
1,-1113,-1219,-4049,-52,19,26,-381,-58,-689
1,-1129,-1230,-4061,-49,17,20,-377,-67,-691
1,-1105,-1223,-4007,-49,13,20,-377,-67,-691
1,-1115,-1229,-4009,-51,13,14,-377,-67,-691
1,-1116,-1263,-4000,-52,16,7,-377,-67,-691
1,-1146,-1250,-4031,-52,11,7,-377,-67,-691
1,-1132,-1235,-4043,-56,8,6,-377,-67,-691
1,-1117,-1242,-4012,-57,6,-2,-377,-67,-691
1,-1135,-1235,-4034,-59,4,-2,-377,-67,-691
1,-1121,-1240,-4029,-56,6,-9,-377,-67,-691
1,-1107,-1251,-4043,-62,6,-6,-377,-67,-691
1,-1112,-1252,-4038,-62,7,-14,-377,-67,-691
1,-1138,-1254,-4011,-64,1,-12,-377,-67,-691
1,-1114,-1234,-4028,-63,8,-8,-377,-67,-691
1,-1110,-1235,-4054,-68,-6,-15,-377,-67,-691
1,-1157,-1236,-4034,-69,-4,-22,-377,-67,-691
1,-1122,-1249,-4010,-67,-4,-20,-377,-67,-691
1,-1133,-1232,-4081,-65,-6,-22,-377,-67,-691
1,-1122,-1238,-3994,-69,-6,-31,-375,-64,-684
1,-1117,-1232,-4003,-75,-2,-23,-375,-64,-684
1,-1146,-1237,-4021,-72,-9,-30,-375,-64,-684
1,-1152,-1249,-4019,-76,-11,-31,-375,-64,-684
1,-1145,-1233,-4001,-84,-6,-27,-375,-64,-684
1,-1125,-1223,-4035,-74,-4,-34,-375,-64,-684
1,-1140,-1218,-4028,-80,-10,-29,-375,-64,-684
1,-1122,-1235,-4028,-76,-11,-29,-375,-64,-684
1,-1134,-1217,-4068,-75,-5,-30,-375,-64,-684
1,-1145,-1219,-4033,-73,-6,-31,-375,-64,-684
1,-1139,-1233,-4034,-84,-7,-29,-375,-64,-684
1,-1138,-1206,-4028,-77,-5,-31,-375,-64,-684
1,-1157,-1212,-4049,-74,-8,-29,-375,-64,-684
1,-1139,-1214,-4031,-77,-9,-32,-375,-64,-684
1,-1142,-1213,-4024,-74,-1,-31,-375,-64,-684
1,-1155,-1201,-4044,-74,2,-25,-375,-64,-684
1,-1123,-1199,-4059,-74,-5,-27,-379,-59,-688
1,-1149,-1211,-4021,-74,3,-17,-379,-59,-688
1,-1136,-1235,-3995,-76,-2,-19,-379,-59,-688
1,-1125,-1216,-4001,-75,2,-10,-379,-59,-688
1,-1134,-1209,-4033,-73,5,-7,-379,-59,-688
1,-1141,-1210,-4032,-69,4,-7,-379,-59,-688
1,-1128,-1219,-4031,-70,15,-8,-379,-59,-688
1,-1156,-1214,-4009,-69,6,-4,-379,-59,-688
1,-1145,-1236,-4040,-63,7,-5,-379,-59,-688
1,-1142,-1212,-4034,-64,3,-7,-379,-59,-688
1,-1152,-1226,-4059,-61,3,-5,-379,-59,-688
1,-1137,-1213,-4026,-64,11,-4,-379,-59,-688
1,-1143,-1210,-4017,-58,10,-8,-379,-59,-688
1,-1139,-1237,-4020,-63,14,-1,-379,-59,-688
1,-1129,-1195,-4051,-62,9,-8,-379,-59,-688
1,-1152,-1213,-4040,-61,12,-3,-379,-59,-688
1,-1160,-1236,-4015,-64,9,-4,-377,-64,-692
1,-1138,-1219,-4010,-58,9,-1,-377,-64,-692
1,-1148,-1222,-4025,-60,10,-1,-377,-64,-692
1,-1146,-1200,-4026,-62,6,2,-377,-64,-692
1,-1138,-1193,-4014,-61,5,6,-377,-64,-692
1,-1131,-1228,-4028,-62,10,1,-377,-64,-692
1,-1129,-1214,-4003,-62,7,4,-377,-64,-692
1,-1105,-1230,-3994,-62,9,-1,-377,-64,-692
1,-1143,-1222,-4016,-56,2,-4,-377,-64,-692
1,-1134,-1214,-4043,-58,9,-4,-377,-64,-692
1,-1135,-1231,-4015,-53,2,-7,-377,-64,-692
1,-1126,-1205,-4007,-60,1,-10,-377,-64,-692
1,-1113,-1217,-4043,-55,1,-7,-377,-64,-692
1,-1160,-1239,-4039,-54,8,-5,-377,-64,-692
1,-1138,-1210,-3985,-55,6,-7,-377,-64,-692
1,-1156,-1246,-4037,-57,5,-3,-377,-64,-692
1,-1150,-1224,-3952,-64,5,3,-377,-64,-692
1,-1159,-1208,-4021,-54,2,-2,-377,-64,-692
1,-1129,-1232,-4013,-50,7,0,-377,-64,-692
1,-1124,-1201,-4023,-54,-2,-1,-377,-64,-692
1,-1168,-1209,-4064,-57,4,4,-377,-64,-692
1,-1134,-1230,-4013,-55,1,2,-377,-64,-692
1,-1140,-1232,-4026,-53,8,4,-377,-64,-692
1,-1137,-1239,-4000,-60,2,-2,-377,-64,-692
1,-1135,-1244,-4019,-60,2,-6,-377,-64,-692
1,-1137,-1218,-4015,-59,8,-1,-377,-64,-692
1,-1137,-1227,-4023,-59,6,-2,-377,-64,-692
1,-1133,-1235,-4017,-57,7,-1,-377,-64,-692
1,-1130,-1225,-4019,-62,6,2,-377,-64,-692
1,-1121,-1250,-4024,-57,9,-1,-377,-64,-692
1,-1148,-1255,-4013,-54,2,2,-377,-64,-692
1,-1148,-1220,-4058,-62,10,7,-377,-64,-692
1,-1162,-1237,-4010,-59,6,11,-377,-64,-692
1,-1169,-1228,-4003,-59,11,9,-378,-60,-689
1,-1140,-1218,-4004,-59,10,7,-378,-60,-689
1,-1098,-1228,-4044,-58,12,9,-378,-60,-689
1,-1133,-1254,-4025,-57,11,8,-378,-60,-689
1,-1148,-1225,-4041,-54,13,6,-378,-60,-689
1,-1134,-1226,-4029,-50,8,7,-378,-60,-689
1,-1135,-1246,-3993,-57,7,3,-378,-60,-689
1,-1135,-1246,-3980,-61,16,-2,-378,-60,-689
1,-1127,-1234,-4003,-63,17,9,-378,-60,-689
1,-1127,-1210,-4001,-57,11,4,-378,-60,-689
1,-1147,-1214,-4024,-62,14,5,-378,-60,-689
1,-1140,-1241,-4042,-63,17,11,-378,-60,-689
1,-1143,-1222,-4023,-67,15,8,-378,-60,-689
1,-1135,-1250,-4014,-61,15,7,-378,-60,-689
1,-1139,-1233,-4036,-66,8,1,-378,-60,-689
1,-1116,-1251,-4025,-64,11,3,-378,-60,-689
1,-1134,-1229,-4030,-66,11,-3,-378,-62,-690
1,-1094,-1228,-4005,-71,7,0,-378,-62,-690
1,-1135,-1244,-4031,-66,9,-3,-378,-62,-690
1,-1153,-1223,-4022,-62,4,-9,-378,-62,-690
1,-1138,-1250,-4049,-66,4,-13,-378,-62,-690
1,-1110,-1215,-4029,-67,11,-13,-378,-62,-690
1,-1124,-1200,-4029,-60,1,-16,-378,-62,-690
1,-1142,-1229,-4034,-74,3,-17,-378,-62,-690
1,-1122,-1235,-4056,-70,5,-16,-378,-62,-690
1,-1117,-1222,-4043,-72,1,-16,-378,-62,-690
1,-1146,-1210,-4031,-71,0,-19,-378,-62,-690
1,-1102,-1231,-4021,-70,-4,-17,-378,-62,-690
1,-1118,-1233,-4001,-76,-4,-24,-378,-62,-690
1,-1141,-1233,-4049,-77,-1,-25,-378,-62,-690
1,-1140,-1213,-3999,-72,0,-22,-378,-62,-690
1,-1125,-1239,-4056,-68,-3,-25,-378,-62,-690
1,-1150,-1218,-4006,-74,-2,-25,-378,-62,-690
1,-1120,-1200,-4029,-70,0,-25,-376,-67,-687
1,-1141,-1218,-3994,-74,-5,-24,-376,-67,-687
1,-1143,-1221,-4041,-69,-6,-20,-376,-67,-687
1,-1146,-1236,-3966,-67,-9,-21,-376,-67,-687
1,-1151,-1239,-4033,-70,-2,-26,-376,-67,-687
1,-1147,-1214,-4057,-67,-7,-22,-376,-67,-687
1,-1149,-1240,-4002,-59,0,-19,-376,-67,-687
1,-1115,-1213,-4013,-59,-5,-22,-376,-67,-687
1,-1137,-1202,-4022,-63,0,-21,-376,-67,-687
1,-1098,-1201,-4005,-64,0,-16,-376,-67,-687
