,ax,ay,az,gx,gy,gz,cx,cy,cz
1,1877,245,-3780,-96,-121,-94,54,208,-650
2,1860,223,-3848,-75,-90,-85,54,208,-650
3,1862,219,-3937,-37,-118,-53,54,208,-650
4,1869,200,-4029,-9,-172,-33,54,208,-650
5,1880,201,-4088,-22,-239,-4,54,208,-650
6,1923,192,-4073,-99,-306,19,54,208,-650
7,1970,272,-3984,-196,-344,25,54,208,-650
8,1980,302,-3865,-259,-332,9,54,208,-650
9,1969,330,-3830,-291,-321,-13,54,208,-650
10,1955,413,-3775,-289,-261,-30,54,208,-650
11,1948,435,-3726,-271,-192,-76,54,208,-650
12,1926,482,-3703,-257,-129,-119,47,208,-645
13,1901,509,-3753,-232,-64,-159,47,208,-645
14,1876,494,-3757,-191,-40,-191,47,208,-645
15,1900,521,-3755,-159,-26,-221,47,208,-645
16,1891,488,-3716,-102,-13,-250,47,208,-645
17,1903,465,-3714,-71,-5,-270,47,208,-645
18,1911,393,-3625,-97,16,-279,47,208,-645
19,1897,378,-3609,-145,77,-281,47,208,-645
20,1891,411,-3558,-178,169,-280,47,208,-645
21,1860,463,-3597,-158,263,-301,47,208,-645
22,1936,482,-3685,-105,320,-332,47,208,-645
23,1916,492,-3783,-39,309,-354,47,208,-645
24,1917,453,-3914,17,280,-373,47,208,-645
25,1927,404,-4069,44,216,-396,47,208,-645
26,1965,364,-4107,62,116,-407,47,208,-645
27,1957,256,-4112,12,28,-408,47,208,-645
28,1986,208,-4096,-63,-41,-410,47,208,-645
29,1945,176,-4024,-137,-68,-402,41,218,-651
30,1913,194,-4013,-169,-70,-382,41,218,-651
31,1935,193,-3980,-171,-67,-367,41,218,-651
32,1888,186,-3952,-194,-66,-339,41,218,-651
33,1865,233,-3936,-195,-84,-317,41,218,-651
34,1915,268,-3920,-212,-85,-294,41,218,-651
35,1899,295,-3893,-220,-98,-289,41,218,-651
36,1911,305,-3858,-215,-96,-287,41,218,-651
37,1915,318,-3801,-166,-78,-286,41,218,-651
38,1900,290,-3832,-105,-74,-282,41,218,-651
39,1884,287,-3896,-45,-55,-279,41,218,-651
40,1893,296,-3877,-3,-41,-274,41,218,-651
41,1885,266,-3893,38,-32,-261,41,218,-651
42,1869,243,-3949,56,-33,-250,41,218,-651
43,1869,257,-3971,76,-37,-228,41,218,-651
44,1878,225,-4015,89,-61,-221,41,218,-651
45,1865,259,-4090,84,-88,-210,47,211,-650
46,1901,240,-3977,48,-123,-207,47,211,-650
47,1916,190,-3902,0,-153,-210,47,211,-650
48,1884,138,-3826,-19,-146,-187,47,211,-650
49,1834,67,-3836,-3,-95,-165,47,211,-650
50,1823,44,-3823,-23,-51,-124,47,211,-650
51,1795,49,-3913,-69,0,-82,47,211,-650
52,1804,87,-3924,-114,24,-55,47,211,-650
53,1862,134,-3972,-145,55,-38,47,211,-650
54,1892,226,-3990,-143,42,-33,47,211,-650
55,1899,257,-3988,-118,13,-42,47,211,-650
56,1844,233,-3975,-92,-5,-45,47,211,-650
57,1834,237,-3967,-64,-32,-28,47,211,-650
58,1825,191,-3938,-39,-64,-10,47,211,-650
59,1832,169,-3968,-50,-76,5,47,211,-650
60,1863,169,-3916,-101,-69,24,47,211,-650
61,1877,207,-3928,-175,-68,29,42,214,-647
62,1859,255,-3875,-212,-37,38,42,214,-647
63,1870,315,-3895,-198,-13,34,42,214,-647
64,1893,325,-3908,-178,8,25,42,214,-647
65,1915,341,-3892,-151,9,16,42,214,-647
66,1901,372,-3924,-144,10,2,42,214,-647
67,1886,375,-3951,-133,13,6,42,214,-647
68,1902,416,-4005,-123,22,-3,42,214,-647
69,1889,425,-3978,-104,19,-24,42,214,-647
70,1877,442,-4030,-35,-10,-41,42,214,-647
71,1878,394,-4047,15,-67,-46,42,214,-647
72,1880,341,-4070,11,-128,-24,42,214,-647
73,1922,283,-3947,-61,-173,-15,42,214,-647
74,1894,291,-3827,-156,-197,4,42,214,-647
75,1875,351,-3744,-180,-146,17,42,214,-647
76,1878,374,-3697,-164,-81,16,42,214,-647
77,1893,413,-3653,-96,-28,13,42,214,-647
78,1892,432,-3719,-12,19,-10,39,223,-646
79,1878,454,-3810,64,50,-18,39,223,-646
80,1885,436,-3990,124,45,-39,39,223,-646
81,1931,378,-4033,99,-5,-41,39,223,-646
82,1888,383,-4048,25,-65,-55,39,223,-646
83,1882,392,-3961,-35,-98,-69,39,223,-646
84,1878,320,-3838,-72,-120,-81,39,223,-646
85,1875,308,-3772,-104,-117,-63,39,223,-646
86,1812,281,-3740,-145,-78,-36,39,223,-646
87,1825,292,-3684,-139,-18,-16,39,223,-646
88,1794,311,-3710,-111,60,8,39,223,-646
89,1801,322,-3785,-61,110,26,39,223,-646
90,1844,320,-3825,-2,120,46,39,223,-646
91,1838,318,-3969,57,82,56,39,223,-646
92,1871,297,-4051,85,30,67,39,223,-646
93,1865,238,-4084,69,-37,83,39,223,-646
94,1909,223,-4095,10,-90,105,46,213,-649
95,1903,228,-3995,-62,-110,119,46,213,-649
96,1904,243,-3935,-127,-71,103,46,213,-649
97,1936,313,-3856,-181,-34,91,46,213,-649
98,1918,335,-3832,-195,7,67,46,213,-649
99,1916,377,-3825,-169,37,36,46,213,-649
100,1905,380,-3916,-139,68,15,46,213,-649
101,1867,361,-3975,-100,46,-8,46,213,-649
102,1886,359,-3969,-93,37,-19,46,213,-649
103,1867,339,-3923,-110,31,-27,46,213,-649
104,1852,301,-3854,-109,31,-34,46,213,-649
105,1830,308,-3784,-101,54,-25,46,213,-649
106,1809,338,-3724,-60,95,-16,46,213,-649
107,1845,329,-3728,-23,115,-15,46,213,-649
108,1835,314,-3742,12,137,-3,46,213,-649
109,1857,291,-3772,29,159,3,46,213,-649
110,1862,270,-3801,41,168,11,46,213,-649
111,1827,252,-3917,74,159,19,44,212,-645
112,1845,246,-3960,97,133,26,44,212,-645
113,1856,200,-3964,93,101,32,44,212,-645
114,1879,224,-3966,56,75,35,44,212,-645
115,1881,203,-3911,13,72,38,44,212,-645
116,1880,232,-3894,-36,85,49,44,212,-645
117,1887,252,-3842,-67,111,44,44,212,-645
118,1861,294,-3806,-63,149,32,44,212,-645
119,1870,317,-3776,-42,186,27,44,212,-645
120,1876,341,-3761,5,216,17,44,212,-645
121,1894,321,-3789,55,235,21,44,212,-645
122,1879,330,-3765,83,250,20,44,212,-645
123,1838,274,-3852,93,260,19,44,212,-645
124,1865,312,-3786,83,263,34,44,212,-645
125,1882,329,-3831,77,291,36,44,212,-645
126,1892,360,-3809,92,314,26,44,212,-645
127,1908,369,-3784,112,326,16,43,218,-653
128,1919,354,-3889,124,339,1,43,218,-653
129,1930,332,-3881,130,331,-15,43,218,-653
130,1923,358,-3973,128,315,-28,43,218,-653
131,1942,312,-3925,104,311,-39,43,218,-653
132,1962,323,-3976,65,307,-53,43,218,-653
133,1958,351,-3949,57,322,-70,43,218,-653
134,1935,360,-3889,60,337,-78,43,218,-653
135,1942,351,-3841,67,355,-93,43,218,-653
136,1918,346,-3808,74,354,-97,43,218,-653
137,1892,312,-3800,87,361,-82,43,218,-653
138,1867,262,-3779,100,385,-68,43,218,-653
139,1888,347,-3773,108,456,-48,43,218,-653
140,1901,359,-3719,115,519,-39,43,218,-653
141,1930,394,-3747,143,573,-38,43,218,-653
142,1928,399,-3752,201,594,-46,43,218,-653
143,1966,390,-3823,261,595,-59,43,206,-644
144,1960,397,-3842,305,610,-69,54,206,-644
145,1975,359,-3892,313,618,-83,54,206,-644
146,1961,342,-3836,279,630,-84,54,206,-644
147,1987,317,-3838,243,599,-87,54,206,-644
148,1995,292,-3823,227,560,-91,54,206,-644
149,1989,273,-3827,214,543,-83,54,206,-644
150,2003,267,-3854,174,556,-66,54,206,-644
151,2053,282,-3865,121,550,-56,54,206,-644
152,2055,296,-3905,102,516,-53,54,206,-644
153,2060,279,-3940,122,463,-47,54,206,-644
154,2070,299,-4019,129,394,-52,54,206,-644
155,2047,278,-4009,105,334,-53,54,206,-644
156,2049,206,-3983,55,292,-38,54,206,-644
157,2002,203,-3968,-4,252,-38,54,206,-644
158,2017,244,-3923,-54,239,-34,54,206,-644
159,1988,277,-3873,-73,245,-37,54,206,-644
160,1984,305,-3799,-55,259,-36,64,201,-639
161,2014,345,-3775,-35,284,-52,64,201,-639
162,1990,322,-3748,-14,328,-64,64,201,-639
163,1998,334,-3661,0,335,-62,64,201,-639
164,2016,326,-3770,23,340,-76,64,201,-639
165,2011,323,-3740,48,355,-81,64,201,-639
166,2011,337,-3726,77,379,-84,64,201,-639
167,2004,323,-3722,92,409,-101,64,201,-639
168,2014,292,-3687,85,426,-104,64,201,-639
169,2052,275,-3665,76,430,-107,64,201,-639
170,2031,253,-3650,77,436,-101,64,201,-639
171,2002,245,-3611,88,460,-93,64,201,-639
172,2013,280,-3652,96,497,-99,64,201,-639
173,2041,292,-3684,94,524,-103,64,201,-639
174,2080,294,-3679,98,553,-122,64,201,-639
175,2057,340,-3625,106,598,-143,64,201,-639
176,2051,339,-3701,135,641,-173,68,207,-653
177,2046,357,-3741,174,660,-206,68,207,-653
178,2093,338,-3766,233,663,-237,68,207,-653
179,2103,349,-3847,263,642,-264,68,207,-653
180,2129,354,-3938,296,566,-277,68,207,-653
181,2117,359,-3922,265,507,-288,68,207,-653
182,2119,373,-3946,222,442,-316,68,207,-653
183,2113,362,-3884,191,373,-331,68,207,-653
184,2058,350,-3760,187,317,-342,68,207,-653
185,2089,368,-3679,198,251,-346,68,207,-653
186,2082,431,-3573,192,262,-353,68,207,-653
187,2041,432,-3542,200,303,-383,68,207,-653
188,2072,514,-3458,216,358,-417,68,207,-653
189,2054,588,-3434,267,427,-473,68,207,-653
190,2067,634,-3438,338,478,-533,68,207,-653
191,2060,620,-3430,420,540,-585,68,207,-653
192,2070,655,-3437,497,589,-649,84,195,-648
193,2047,673,-3370,565,581,-710,84,195,-648
194,2020,702,-3318,583,599,-741,84,195,-648
195,2032,771,-3252,630,599,-774,84,195,-648
196,2042,824,-3174,677,636,-819,84,195,-648
197,2039,817,-3083,752,698,-862,84,195,-648
198,2055,823,-3143,870,740,-904,84,195,-648
199,2039,843,-3205,998,759,-955,84,195,-648
200,2056,774,-3295,1117,766,-1005,84,195,-648
201,2179,797,-3361,1225,730,-1056,84,195,-648
202,2090,672,-3559,1236,690,-1114,84,195,-648
203,2233,716,-3713,1189,614,-1169,84,195,-648
204,2255,596,-3927,1297,452,-1226,84,195,-648
205,2298,430,-4031,1332,227,-1250,84,195,-648
206,2363,281,-4102,1287,-63,-1241,84,195,-648
207,2237,52,-4276,1171,-261,-1226,84,195,-648
208,2233,-23,-4329,966,-387,-1202,81,179,-649
209,2300,-81,-4296,736,-576,-1139,81,179,-649
210,2310,-155,-4204,463,-766,-1073,81,179,-649
211,2316,-91,-4173,326,-950,-1038,81,179,-649
212,2237,-118,-4200,181,-965,-1005,81,179,-649
213,2218,-195,-4185,180,-1035,-952,81,179,-649
214,2216,-207,-4306,107,-1143,-876,81,179,-649
215,2215,-279,-4570,-73,-1292,-783,81,179,-649
216,2215,-230,-4608,-297,-1468,-707,81,179,-649
217,2208,-161,-4649,-547,-1650,-642,81,179,-649
218,2233,-7,-4635,-734,-1819,-618,81,179,-649
219,2262,203,-4526,-830,-2037,-628,81,179,-649
220,2264,261,-4435,-950,-2243,-645,81,179,-649
221,2234,349,-4294,-1010,-2433,-689,81,179,-649
222,2249,501,-4214,-1009,-2593,-750,81,179,-649
223,2244,545,-4166,-1068,-2659,-828,81,179,-649
224,2287,588,-4164,-1067,-2765,-940,37,197,-662
225,2270,566,-4286,-1037,-2922,-1078,37,197,-662
226,2339,577,-4358,-1003,-3162,-1167,37,197,-662
227,2260,475,-4491,-1051,-3416,-1231,37,197,-662
228,2208,431,-4680,-1127,-3428,-1306,37,197,-662
229,2346,433,-4782,-1174,-3675,-1387,37,197,-662
230,2267,412,-4913,-1173,-3880,-1456,37,197,-662
231,2322,439,-5056,-1062,-4115,-1517,37,197,-662
232,2228,333,-5283,-933,-4396,-1568,37,197,-662
233,2123,196,-5426,-827,-4678,-1599,37,197,-662
234,1940,-46,-5683,-915,-4931,-1577,37,197,-662
235,1787,-271,-5799,-1352,-5076,-1514,37,197,-662
236,1872,-176,-5862,-1629,-5613,-1421,37,197,-662
237,1747,-140,-5664,-1931,-5800,-1373,37,197,-662
238,2209,-272,-5025,-2508,-5988,-1401,37,197,-662
239,1936,-103,-4358,-2903,-6342,-1401,37,197,-662
240,1400,5,-3669,-3080,-5838,-1335,-61,227,-648
241,1516,135,-3231,-3019,-5773,-1299,-61,227,-648
242,1084,362,-3232,-2640,-5289,-1286,-61,227,-648
243,1061,323,-3333,-2475,-4842,-1256,-61,227,-648
244,1078,509,-3538,-2336,-4514,-1241,-61,227,-648
245,1183,679,-3744,-2109,-4293,-1278,-61,227,-648
246,1249,714,-4117,-1932,-4298,-1341,-61,227,-648
247,1240,678,-4465,-1862,-4377,-1373,-61,227,-648
248,1215,646,-4534,-1961,-4491,-1403,-61,227,-648
249,1151,623,-4457,-2030,-4560,-1412,-61,227,-648
250,979,515,-4387,-2048,-4512,-1392,-61,227,-648
251,963,397,-4273,-2089,-4447,-1346,-61,227,-648
252,841,302,-4260,-2177,-4393,-1257,-61,227,-648
253,734,175,-4201,-2310,-4383,-1165,-61,227,-648
254,622,101,-4116,-2483,-4377,-1045,-61,227,-648
255,575,218,-4091,-2607,-4371,-947,-174,280,-620
256,682,389,-4108,-2751,-4458,-869,-174,280,-620
257,837,698,-4042,-2847,-4594,-883,-174,280,-620
258,806,999,-3845,-2616,-4665,-962,-174,280,-620
259,696,909,-3760,-2231,-4648,-1004,-174,280,-620
260,594,737,-3619,-1921,-4559,-990,-174,280,-620
261,470,659,-3549,-1631,-4408,-892,-174,280,-620
262,251,544,-3688,-1423,-4168,-810,-174,280,-620
263,123,390,-3793,-1408,-3932,-721,-174,280,-620
264,27,287,-3996,-1470,-3812,-608,-174,280,-620
265,10,335,-4171,-1600,-3818,-485,-174,280,-620
266,113,438,-4216,-1823,-3938,-371,-174,280,-620
267,142,606,-4113,-1974,-4071,-324,-174,280,-620
268,94,694,-4042,-1844,-4117,-250,-174,280,-620
269,26,634,-3991,-1649,-4146,-168,-174,280,-620
270,-40,457,-4123,-1541,-4224,-56,-174,280,-620
271,-68,406,-4371,-1586,-4288,71,-269,327,-584
272,-80,422,-4497,-1755,-4342,167,-269,327,-584
273,-113,485,-4472,-1838,-4396,274,-269,327,-584
274,-155,470,-4450,-1808,-4405,389,-269,327,-584
275,-207,400,-4524,-1766,-4405,511,-269,327,-584
276,-215,356,-4742,-1793,-4418,668,-269,327,-584
277,-207,362,-4837,-1949,-4451,824,-269,327,-584
278,-91,581,-4592,-2162,-4514,929,-269,327,-584
279,-130,1159,-4137,-2031,-4424,959,-269,327,-584
280,-129,1415,-3878,-1640,-4184,918,-269,327,-584
281,-143,1407,-3777,-1311,-3861,865,-269,327,-584
282,-186,1300,-3764,-1268,-3546,866,-269,327,-584
283,-301,1298,-3867,-1384,-3212,881,-269,327,-584
284,-260,1453,-3833,-1452,-2931,856,-269,327,-584
285,-259,1641,-3777,-1386,-2749,798,-269,327,-584
286,-304,1780,-3857,-1165,-2597,703,-269,327,-584
287,-304,1731,-4040,-954,-2529,608,-321,356,-534
288,-335,1525,-4134,-869,-2533,557,-321,356,-534
289,-401,1331,-4171,-940,-2563,560,-321,356,-534
290,-539,1228,-4050,-1023,-2482,613,-321,356,-534
291,-621,1171,-3856,-995,-2347,685,-321,356,-534
292,-654,1113,-3850,-900,-2196,770,-321,356,-534
293,-688,1098,-4102,-823,-2065,860,-321,356,-534
294,-666,1052,-4354,-869,-2020,927,-321,356,-534
295,-634,1071,-4496,-1060,-2067,1011,-321,356,-534
296,-651,1161,-4457,-1239,-2141,1066,-321,356,-534
297,-632,1282,-4128,-1245,-2169,1104,-321,356,-534
298,-680,1264,-3766,-1068,-2097,1167,-321,356,-534
299,-746,1160,-3602,-952,-1956,1266,-321,356,-534
300,-824,1150,-3499,-907,-1716,1368,-321,356,-534
301,-825,1176,-3490,-881,-1508,1479,-321,356,-534
302,-770,1309,-3587,-792,-1335,1558,-343,382,-497
303,-691,1486,-3670,-630,-1267,1599,-343,382,-497
304,-777,1547,-3842,-405,-1147,1601,-343,382,-497
305,-668,1509,-3983,-299,-1101,1596,-343,382,-497
306,-657,1426,-4006,-307,-1048,1611,-343,382,-497
307,-710,1301,-3848,-302,-981,1647,-343,382,-497
308,-778,1264,-3822,-275,-847,1731,-343,382,-497
309,-801,1233,-3762,-207,-700,1829,-343,382,-497
310,-820,1154,-3819,-99,-568,1908,-343,382,-497
311,-785,1050,-3925,-55,-515,2016,-343,382,-497
312,-787,1045,-3876,-98,-472,2109,-343,382,-497
313,-720,1211,-3780,-176,-474,2168,-343,382,-497
314,-721,1375,-3569,-162,-469,2191,-343,382,-497
315,-818,1618,-3289,31,-396,2177,-343,382,-497
316,-649,1482,-3035,207,-298,2198,-343,382,-497
317,-678,1504,-2892,375,-54,2259,-343,382,-497
318,-671,1530,-3016,391,139,2289,-335,407,-490
319,-549,1490,-3224,515,248,2310,-335,407,-490
320,-524,1506,-3537,702,271,2326,-335,407,-490
321,-542,1534,-3781,822,271,2330,-335,407,-490
322,-673,1182,-3829,892,231,2380,-335,407,-490
323,-877,1160,-3929,1112,426,2500,-335,407,-490
324,-443,777,-3842,970,449,2617,-335,407,-490
325,-514,1028,-3914,1071,656,2742,-335,407,-490
326,-685,1057,-3965,867,818,2895,-335,407,-490
327,-516,1036,-4008,653,977,2952,-335,407,-490
328,-553,1157,-4094,472,1181,3053,-335,407,-490
329,-621,1286,-4075,401,1368,3078,-335,407,-490
330,-384,1309,-3898,333,1503,3059,-335,407,-490
331,-241,1496,-3903,410,1738,3080,-335,407,-490
332,-332,1456,-3633,519,2059,3149,-335,407,-490
333,-493,1823,-3395,612,2127,3058,-335,407,-259
334,-128,1614,-3496,689,2351,2931,-270,407,-515
335,-166,1758,-3423,715,2467,2956,-270,407,-515
336,-45,1706,-3345,590,2580,2919,-270,407,-515
337,-39,1629,-3263,477,2652,2930,-270,407,-515
338,-240,2014,-3608,516,2811,2840,-270,407,-515
339,168,1646,-3386,752,2845,2764,-270,407,-515
340,-319,2297,-3620,980,2948,2655,-270,407,-515
341,278,1756,-3500,1317,2968,2560,-270,407,-515
342,-21,2088,-3809,1498,2854,2490,-270,407,-515
343,107,1740,-3979,1604,2864,2415,-270,407,-515
344,342,1679,-4373,1444,2540,2340,-270,407,-515
345,252,1690,-4566,1360,2249,2254,-270,407,-515
346,417,1461,-4661,922,1891,2219,-270,407,-515
347,-76,2091,-4239,1527,2221,2177,-270,407,-515
348,266,1219,-4118,973,1975,2172,-270,407,-515
349,-134,1415,-4067,1393,2297,2179,-194,396,-539
350,179,1100,-3965,1163,2328,2200,-194,396,-539
351,426,1185,-3966,917,2245,2278,-194,396,-539
352,228,1411,-3894,855,2461,2262,-194,396,-539
353,430,1178,-3817,797,2445,2223,-194,396,-539
354,278,1362,-3848,832,2554,2195,-194,396,-539
355,507,1647,-3524,1040,2893,2166,-194,396,-539
356,442,1719,-3493,875,3003,2117,-194,396,-539
357,444,1713,-3275,954,3095,2078,-194,396,-539
358,441,1825,-3162,980,3330,1985,-194,396,-539
359,507,2001,-2930,1302,3585,1860,-194,396,-539
360,588,1917,-3056,1602,3832,1764,-194,396,-539
361,650,1819,-3187,1926,3937,1708,-194,396,-539
362,638,1693,-3469,2056,3976,1620,-194,396,-539
363,748,1568,-3880,2178,3955,1567,-194,396,-539
364,796,1346,-4302,2142,3800,1516,-194,396,-539
365,800,1213,-4567,2080,3563,1472,-113,383,-572
366,901,1051,-4668,1854,3332,1493,-113,383,-572
367,911,1050,-4662,1510,3102,1500,-113,383,-572
368,900,1189,-4513,1224,3021,1519,-113,383,-572
369,928,1380,-4373,1045,2953,1491,-113,383,-572
370,1027,1540,-4252,1050,2887,1410,-113,383,-572
371,1101,1601,-4210,1124,2774,1315,-113,383,-572
372,1131,1645,-4168,1255,2697,1176,-113,383,-572
373,1205,1503,-3939,1377,2705,1099,-113,383,-572
374,1188,1566,-3778,1462,2847,1039,-113,383,-572
375,1107,1479,-3739,1530,3018,990,-113,383,-572
376,1140,1401,-3466,1590,3232,981,-113,383,-572
377,1070,1386,-3341,1665,3467,938,-113,383,-572
378,1136,1312,-3250,1654,3703,909,-113,383,-572
379,1089,1241,-3126,1717,3998,898,-113,383,-572
380,1127,1223,-2947,1809,4373,905,-32,339,-595
381,1157,1173,-2922,1900,4722,908,-32,339,-595
382,1205,1211,-3053,2022,5055,867,-32,339,-595
383,1261,1092,-3377,2151,5290,810,-32,339,-595
384,1408,1071,-3692,2219,5360,721,-32,339,-595
385,1505,987,-4011,2217,5309,635,-32,339,-595
386,1612,974,-4309,2207,5086,507,-32,339,-595
387,1652,950,-4708,2129,4840,405,-32,339,-595
388,1737,1014,-5042,2028,4448,318,-32,339,-595
389,1854,929,-5155,1716,4082,227,-32,339,-595
390,1815,1147,-5041,1595,3719,136,-32,339,-595
391,1900,924,-4953,1236,3356,93,-32,339,-595
392,1851,1211,-4672,1143,3141,48,-32,339,-595
393,1870,1141,-4366,1080,2981,-14,-32,339,-595
394,1845,1106,-4203,964,2891,-67,-32,339,-595
395,1784,1163,-4016,944,2887,-114,-32,339,-595
396,1793,1161,-3882,977,2904,-169,43,302,-606
397,1787,1208,-3605,976,2999,-239,43,302,-606
398,1775,1236,-3336,1008,3158,-311,43,302,-606
399,1816,1262,-3210,1161,3345,-368,43,302,-606
400,1828,1158,-3052,1362,3539,-442,43,302,-606
401,1833,1025,-2941,1519,3776,-483,43,302,-606
402,1883,887,-2862,1581,4016,-494,43,302,-606
403,1793,808,-2879,1647,4293,-488,43,302,-606
404,1809,712,-2908,1648,4607,-457,43,302,-606
405,1822,646,-2879,1574,4925,-435,43,302,-606
406,1850,663,-2765,1519,5195,-450,43,302,-606
407,1955,824,-2595,1678,5346,-479,43,302,-606
408,1177,938,-1533,1743,4466,-435,43,302,-606
409,2189,964,-2994,1804,5751,-556,43,302,-606
410,2362,1178,-3233,2214,5430,-664,43,302,-606
411,2377,1122,-4056,2675,5029,-808,43,302,-606
412,2570,1063,-4677,3019,4487,-1010,122,277,-611
413,2680,890,-5244,3020,3655,-1191,122,277,-611
414,2522,769,-5641,2839,3180,-1337,122,277,-611
415,2535,725,-5740,2515,2699,-1444,122,277,-611
416,2575,701,-5572,2136,2259,-1529,122,277,-611
417,2591,770,-5222,1816,1921,-1584,122,277,-611
418,2707,899,-4657,1653,1599,-1642,122,277,-611
419,2753,992,-4127,1614,1267,-1709,122,277,-611
420,2700,1023,-3697,1608,1060,-1783,122,277,-611
421,2628,1115,-3321,1678,1066,-1846,122,277,-611
422,2620,1133,-3133,1785,1151,-1928,122,277,-611
423,2603,1183,-2994,1846,1271,-2000,122,277,-611
424,2560,1248,-2904,1953,1441,-2099,122,277,-611
425,2992,1398,-2590,2125,1431,-2380,122,277,-611
426,2310,1680,-2503,2966,1420,-2473,122,277,-611
427,2392,1162,-3008,3312,1630,-2434,144,234,-613
428,2516,949,-2918,2862,1820,-2526,144,234,-613
429,2552,915,-2841,2391,2022,-2613,144,234,-613
430,2527,960,-2851,2195,2116,-2647,144,234,-613
431,2489,977,-2906,2352,2148,-2718,144,234,-613
432,2589,921,-3152,2654,2007,-2797,144,234,-613
433,2621,777,-3342,2901,1745,-2837,144,234,-613
434,2690,676,-3810,2905,1468,-2859,144,234,-613
435,2721,607,-3977,2675,1186,-2879,144,234,-613
436,2905,838,-4033,2509,821,-2921,144,234,-613
437,2874,915,-4123,2317,509,-3036,144,234,-613
438,3046,1047,-4091,2137,99,-3153,144,234,-613
439,3073,1075,-4121,2070,-507,-3294,144,234,-613
440,3108,1088,-4170,2051,-1031,-3463,144,234,-613
441,2813,622,-4401,1536,-1238,-3483,144,234,-613
442,2844,764,-4476,1363,-1628,-3558,144,234,-613
443,2646,662,-4616,1254,-1900,-3592,129,214,-626
444,2634,605,-4535,1101,-2188,-3603,129,214,-626
445,2566,559,-4630,1009,-2621,-3626,129,214,-626
446,2649,157,-4514,769,-3159,-3646,129,214,-626
447,2736,-431,-4358,134,-3853,-3488,129,214,-626
448,2695,-622,-4019,-471,-4603,-3275,129,214,-626
449,2243,-641,-3988,-1114,-4901,-3006,129,214,-626
450,2175,-681,-3975,-1635,-4838,-2777,129,214,-626
451,2233,-463,-3881,-1922,-4833,-2600,129,214,-626
452,2182,-255,-3834,-2075,-4792,-2464,129,214,-626
453,2207,56,-3929,-1907,-4843,-2414,129,214,-626
454,2160,204,-4364,-1580,-4888,-2438,129,214,-626
455,2111,265,-4753,-1264,-4929,-2477,129,214,-626
456,2100,389,-5032,-1013,-4989,-2516,129,214,-626
457,2191,238,-5109,-842,-5012,-2648,129,214,-626
458,2300,-21,-4828,-883,-5155,-2730,15,258,-644
459,2149,-214,-4736,-900,-5297,-2645,15,258,-644
460,1865,-327,-4754,-869,-5330,-2526,15,258,-644
461,1661,-435,-5085,-806,-5273,-2372,15,258,-644
462,1698,-333,-5221,-671,-5299,-2246,15,258,-644
463,1947,-693,-5359,-635,-5674,-2154,15,258,-644
464,1981,-949,-5475,-969,-6277,-1991,15,258,-644
465,1625,-962,-5947,-1392,-6935,-1738,15,258,-644
466,1367,-854,-6268,-1917,-7307,-1538,15,258,-644
467,1330,-669,-6309,-2330,-7708,-1387,15,258,-644
468,1242,-633,-6263,-2879,-8076,-1246,15,258,-644
469,1489,-308,-5718,-3419,-8461,-1045,15,258,-644
470,1755,90,-5070,-3875,-8769,-1082,15,258,-644
471,1829,313,-4099,-4030,-8779,-1152,15,258,-644
472,1940,452,-3025,-3809,-8713,-1219,15,258,-644
473,1512,576,-2550,-3106,-8412,-1231,15,258,-644
474,157,393,-3059,-2367,-7212,-1235,-138,303,-614
475,1128,332,-3055,-1749,-6547,-1124,-138,303,-614
476,521,288,-3939,-1468,-6000,-1014,-138,303,-614
477,1082,354,-4422,-1681,-5613,-849,-138,303,-614
478,1028,461,-4804,-1815,-5754,-827,-138,303,-614
479,806,584,-4998,-1820,-5545,-789,-138,303,-614
480,774,631,-4944,-1754,-5526,-757,-138,303,-614
481,662,539,-4806,-1665,-5321,-709,-138,303,-614
482,878,354,-4388,-1859,-5271,-612,-138,303,-614
483,828,332,-3891,-2122,-5259,-473,-138,303,-614
484,686,361,-3597,-2246,-5169,-319,-138,303,-614
485,459,466,-3611,-2183,-4986,-168,-138,303,-614
486,309,594,-3772,-2025,-4750,-54,-138,303,-614
487,181,674,-3901,-1870,-4521,55,-138,303,-614
488,110,709,-3940,-1742,-4280,157,-138,303,-614
489,82,720,-3954,-1655,-4055,274,-251,342,-566
490,102,820,-3739,-1518,-3892,357,-251,342,-566
491,56,894,-3545,-1281,-3698,474,-251,342,-566
492,1,951,-3446,-965,-3413,568,-251,342,-566
493,-134,904,-3540,-680,-3219,674,-251,342,-566
494,-123,810,-3769,-528,-3014,777,-251,342,-566
495,-110,774,-3952,-522,-2941,882,-251,342,-566
496,-111,860,-4018,-548,-2891,987,-251,342,-566
497,-93,980,-4013,-566,-2808,1086,-251,342,-566
498,-96,1062,-3894,-498,-2692,1173,-251,342,-566
499,-112,1053,-3864,-380,-2610,1274,-251,342,-566
500,-201,963,-3901,-311,-2459,1410,-251,342,-566
501,-208,908,-3827,-342,-2288,1541,-251,342,-566
502,-258,933,-3725,-365,-2080,1671,-251,342,-566
503,-267,1062,-3657,-299,-1827,1788,-251,342,-566
504,-277,1155,-3653,-159,-1549,1886,-251,342,-566
505,-267,1168,-3671,30,-1251,1988,-290,369,-545
506,-204,1036,-3685,177,-994,2097,-290,369,-545
507,-235,894,-3739,218,-768,2239,-290,369,-545
508,-300,872,-3709,216,-476,2402,-290,369,-545
509,-284,939,-3746,187,-182,2555,-290,369,-545
510,-202,945,-3739,212,87,2695,-290,369,-545
511,-213,971,-3718,253,306,2861,-290,369,-545
512,-216,991,-3608,374,526,2924,-290,369,-545
513,-131,883,-3543,563,695,3054,-290,369,-545
514,-160,831,-3495,712,843,3228,-290,369,-545
515,-217,829,-3562,780,1058,3400,-290,369,-545
516,-111,822,-3533,788,1187,3564,-290,369,-545
517,-267,983,-3618,903,1271,3689,-290,369,-545
518,-42,808,-3714,868,1320,3808,-290,369,-545
519,-80,1030,-3840,955,1195,3846,-290,369,-545
520,220,975,-3904,1221,1204,3901,-290,369,-545
521,-97,1004,-4029,1207,1160,3947,-232,365,-558
522,88,1199,-3997,1265,1196,3966,-232,365,-558
523,316,1241,-4041,1061,1118,3916,-232,365,-558
524,339,1695,-3849,1351,1149,3809,-232,365,-558
525,338,1594,-3919,1346,1230,3684,-232,365,-558
526,468,1373,-3980,1158,1206,3589,-232,365,-558
527,629,1035,-4161,578,993,3598,-232,365,-558
528,-85,1569,-3902,448,1251,3504,-232,365,-558
529,489,1121,-3597,329,1563,3468,-232,365,-558
530,275,1478,-3527,472,1970,3382,-232,365,-558
531,431,1284,-3212,927,2452,3354,-232,365,-558
532,581,1346,-3286,845,2636,3334,-232,365,-558
533,711,1078,-3365,705,2820,3374,-232,365,-558
534,330,1531,-3455,940,3069,3349,-232,365,-558
535,560,1117,-3419,973,3286,3331,-232,365,-558
536,505,1297,-3512,1158,3477,3315,-232,365,-558
537,638,1206,-3437,1432,3587,3295,-148,359,-573
538,667,1202,-3442,1684,3643,3305,-148,359,-573
539,883,938,-3493,1709,3565,3406,-148,359,-573
540,611,1519,-3733,1851,3728,3305,-148,359,-573
541,925,1312,-3528,1886,3918,3257,-148,359,-573
542,923,1506,-3584,1811,3987,3173,-148,359,-573
543,1102,1654,-3493,1832,4078,3050,-148,359,-573
544,1167,1804,-3420,1970,4021,2895,-148,359,-573
545,1209,1809,-3515,2006,3976,2724,-148,359,-573
546,1188,1777,-3590,2072,3984,2572,-148,359,-573
547,1230,1707,-3651,2025,3991,2414,-148,359,-573
548,1317,1785,-3656,1960,4015,2250,-148,359,-573
549,1351,1850,-3706,1929,4124,2042,-148,359,-573
550,1495,1623,-3671,1856,4183,1830,-148,359,-573
551,1450,1541,-3627,1850,4268,1677,-148,359,-573
552,1412,1316,-3475,1824,4459,1555,-47,326,-608
553,1517,1367,-3219,1833,4571,1511,-47,326,-608
554,1443,1315,-3335,1838,4779,1458,-47,326,-608
555,1559,1358,-3470,1845,4882,1360,-47,326,-608
556,1541,1380,-3593,1855,4904,1229,-47,326,-608
557,1548,1342,-3654,1895,5052,1116,-47,326,-608
558,1730,1358,-3658,2112,4981,980,-47,326,-608
559,1611,1070,-3823,1954,4948,933,-47,326,-608
560,1639,1148,-3836,1991,4967,853,-47,326,-608
561,1748,1187,-3798,2010,4910,784,-47,326,-608
562,1787,993,-3739,1842,4888,755,-47,326,-608
563,1869,1173,-3494,2216,4767,625,-47,326,-608
564,1846,982,-3603,2084,4797,570,-47,326,-608
565,1862,955,-3630,1903,4883,571,-47,326,-608
566,1974,1179,-3689,1946,4885,494,-47,326,-608
567,2092,1140,-3777,1910,4737,384,-47,326,-608
568,2077,1113,-3833,1769,4750,293,65,264,-615
569,2120,1161,-3882,1706,4836,142,65,264,-615
570,2113,1132,-3833,1596,4931,-4,65,264,-615
571,2306,1246,-3581,1791,5009,-173,65,264,-615
572,2446,1107,-3389,1722,5090,-305,65,264,-615
573,2393,1207,-3291,1845,5223,-434,65,264,-615
574,2511,1060,-3339,2007,5293,-567,65,264,-615
575,2466,899,-3455,2263,5353,-686,65,264,-615
576,2502,678,-3851,2561,5289,-792,65,264,-615
577,2494,607,-4047,2720,5144,-858,65,264,-615
578,2483,334,-4226,2520,4991,-867,65,264,-615
579,2490,360,-4286,2292,4797,-853,65,264,-615
580,2540,461,-4208,2046,4571,-836,65,264,-615
581,2517,545,-4301,1849,4378,-858,65,264,-615
582,2689,739,-4493,1842,3943,-1043,65,264,-615
583,2557,847,-4603,1830,3589,-1057,65,231,-612
584,2659,882,-4720,1842,3246,-1177,144,231,-612
585,2855,949,-4774,1745,2704,-1353,144,231,-612
586,2846,953,-4755,1469,2202,-1540,144,231,-612
587,2804,953,-4586,1306,1771,-1653,144,231,-612
588,2777,1016,-4404,1215,1652,-1768,144,231,-612
589,2869,1037,-4243,1216,1437,-1893,144,231,-612
590,2862,1057,-4083,1292,1239,-2013,144,231,-612
591,2923,1105,-4031,1394,1045,-2148,144,231,-612
592,2915,1159,-3972,1472,881,-2292,144,231,-612
593,2971,1206,-3967,1522,726,-2444,144,231,-612
594,2996,1231,-3848,1512,591,-2599,144,231,-612
595,3072,1338,-3678,1469,466,-2803,144,231,-612
596,3036,1387,-3598,1462,373,-3028,144,231,-612
597,2949,1334,-3478,1521,277,-3259,144,231,-612
598,2788,1212,-3430,1664,157,-3462,144,231,-612
599,2691,991,-3479,1838,3,-3616,151,223,-624
600,2622,729,-3492,1955,-170,-3709,151,223,-624
601,2588,622,-3566,2081,-342,-3780,151,223,-624
602,2542,411,-3812,2227,-519,-3850,151,223,-624
603,2497,230,-3981,2300,-701,-3886,151,223,-624
604,2436,18,-4273,2269,-890,-3850,151,223,-624
605,2356,-130,-4556,2167,-1115,-3785,151,223,-624
606,2317,-411,-4947,1763,-1298,-3586,151,223,-624
607,2335,-464,-5068,1694,-1715,-3461,151,223,-624
608,2318,-714,-5202,1490,-2099,-3284,151,223,-624
609,2393,-1189,-5286,760,-2535,-3016,151,223,-624
610,2589,-1274,-5173,-38,-3285,-2717,151,223,-624
611,2520,-1483,-4984,-952,-3971,-2345,151,223,-624
612,2274,-1333,-4753,-1841,-4386,-1921,151,223,-624
613,2460,-880,-4488,-2491,-4811,-1623,151,223,-624
614,2400,-631,-4507,-2786,-5125,-1375,151,227,-634
615,2307,-398,-4571,-2948,-5273,-1224,87,227,-634
616,2369,-187,-4631,-3053,-5500,-1144,87,227,-634
617,2391,24,-4644,-3199,-5710,-1136,87,227,-634
618,2417,90,-4543,-3187,-5807,-1194,87,227,-634
619,2508,143,-4359,-3253,-5893,-1245,87,227,-634
620,2455,227,-4289,-3307,-6074,-1283,87,227,-634
621,2309,312,-4232,-3213,-6227,-1300,87,227,-634
622,2133,458,-4243,-3019,-6260,-1352,87,227,-634
623,2063,457,-4414,-2875,-6270,-1403,87,227,-634
624,2070,451,-4587,-2599,-6351,-1449,87,227,-634
625,2026,402,-4735,-2506,-6476,-1468,87,227,-634
626,1929,465,-4870,-2602,-6506,-1491,87,227,-634
627,1770,318,-4901,-2757,-6546,-1487,87,227,-634
628,1596,193,-4920,-2811,-6407,-1440,87,227,-634
629,1441,345,-4933,-2603,-6245,-1409,87,227,-634
630,1436,499,-4854,-2064,-6339,-1370,-57,301,-619
631,1401,567,-4852,-1587,-6496,-1296,-57,301,-619
632,1232,-150,-5038,-1778,-6497,-1310,-57,301,-619
633,667,-463,-4662,-1936,-6260,-1231,-57,301,-619
634,1765,-613,-4365,-2172,-6690,-952,-57,301,-619
635,1359,-582,-3904,-2721,-6886,-726,-57,301,-619
636,1170,-357,-3381,-3291,-6552,-445,-57,301,-619
637,1351,200,-2970,-3310,-6571,-303,-57,301,-619
638,881,631,-2972,-2814,-6098,-215,-57,301,-619
639,1008,782,-3252,-2317,-5657,-229,-57,301,-619
640,1008,779,-3472,-2016,-5327,-248,-57,301,-619
641,1039,654,-3721,-2024,-5065,-224,-57,301,-619
642,955,726,-3726,-2224,-4828,-188,-57,301,-619
643,897,906,-3632,-2319,-4576,-179,-57,301,-619
644,864,1028,-3470,-2240,-4360,-184,-57,301,-619
645,761,1165,-3289,-2009,-4132,-173,-57,301,-619
646,606,1099,-3349,-1665,-3895,-167,-174,355,-585
647,519,973,-3520,-1374,-3699,-124,-174,355,-585
648,430,814,-3726,-1282,-3527,-41,-174,355,-585
649,353,753,-3777,-1286,-3363,62,-174,355,-585
650,280,760,-3798,-1287,-3206,186,-174,355,-585
651,322,692,-3745,-1217,-3092,316,-174,355,-585
652,345,612,-3630,-1175,-3068,469,-174,355,-585
653,160,508,-3536,-1116,-2960,661,-174,355,-585
654,43,493,-3444,-1019,-2735,875,-174,355,-585
655,39,598,-3433,-886,-2469,1077,-174,355,-585
656,51,698,-3545,-731,-2285,1249,-174,355,-585
657,117,834,-3668,-560,-2202,1388,-174,355,-585
658,106,925,-3767,-358,-2147,1495,-174,355,-585
659,105,914,-3832,-172,-2099,1592,-174,355,-585
660,164,950,-3806,11,-2056,1685,-174,355,-585
661,113,781,-3794,78,-1926,1784,-208,367,-562
662,48,961,-3544,249,-1714,1879,-208,367,-562
663,-22,899,-3483,159,-1481,2010,-208,367,-562
664,-38,1007,-3564,155,-1268,2073,-208,367,-562
665,191,782,-3673,310,-938,2206,-208,367,-562
666,-17,1130,-3667,526,-689,2274,-208,367,-562
667,101,1068,-3682,798,-289,2363,-208,367,-562
668,240,880,-3732,778,-118,2448,-208,367,-562
669,139,643,-3840,736,157,2578,-208,367,-562
670,269,454,-3889,530,253,2746,-208,367,-562
671,-38,693,-3845,499,512,2969,-208,367,-562
672,230,624,-3664,359,667,3035,-208,367,-562
673,208,914,-3546,298,866,3122,-208,367,-562
674,325,1113,-3358,344,1014,3210,-208,367,-562
675,589,1515,-3305,450,1013,3252,-208,367,-562
676,-44,1636,-3300,867,1421,3227,-208,367,-562
677,227,1365,-3253,924,1470,3180,-174,367,-564
678,371,1481,-3606,1036,1601,3164,-174,367,-564
679,590,1372,-3678,968,1685,3117,-174,367,-564
680,615,1306,-3836,827,1613,3105,-174,367,-564
681,1112,914,-4119,300,1366,3141,-174,367,-564
682,425,1981,-3992,993,1730,3036,-174,367,-564
683,861,1308,-3959,975,1799,2895,-174,367,-564
684,722,1470,-4129,1337,1868,2886,-174,367,-564
685,597,1243,-4142,1452,1979,2796,-174,367,-564
686,830,860,-4009,1105,1797,2844,-174,367,-564
687,596,833,-4128,853,1777,2930,-174,367,-564
688,730,580,-4045,373,1827,3050,-174,367,-564
689,232,1299,-3876,539,2169,2954,-174,367,-564
690,452,654,-3390,567,2420,2967,-174,367,-564
691,558,1351,-3168,779,2724,3067,-174,367,-564
692,818,1369,-2994,741,2914,3008,-174,367,-564
693,1039,1574,-2966,999,3160,3018,-101,359,-588
694,1181,2065,-3302,887,3194,2861,-101,359,-588
695,1222,2162,-3614,1041,3301,2668,-101,359,-588
696,1432,2056,-3846,1042,3258,2459,-101,359,-588
697,1273,2192,-4119,1043,3170,2221,-101,359,-588
698,1430,2012,-4133,998,3047,2003,-101,359,-588
699,1450,1967,-4063,1025,2952,1816,-101,359,-588
700,1364,1832,-3912,1152,2981,1639,-101,359,-588
701,1457,1677,-3826,1294,2988,1517,-101,359,-588
702,1350,1580,-3831,1408,3058,1412,-101,359,-588
703,1359,1476,-3780,1460,3203,1317,-101,359,-588
704,1412,1390,-3682,1466,3318,1246,-101,359,-588
705,1386,1415,-3551,1450,3497,1172,-101,359,-588
706,1405,1499,-3502,1509,3672,1068,-101,359,-588
707,1516,1461,-3417,1606,3717,972,-101,359,-588
708,1405,1461,-3288,1743,3875,873,-11,317,-601
709,1464,1511,-3246,1915,4121,801,-11,317,-601
710,1560,1389,-3219,2126,4186,704,-11,317,-601
711,1579,1414,-3352,2245,4354,631,-11,317,-601
712,1714,1036,-3617,2132,4364,591,-11,317,-601
713,1548,1009,-3715,1813,4478,559,-11,317,-601
714,1625,1151,-3724,1800,4674,498,-11,317,-601
715,1835,1255,-3722,1743,4664,400,-11,317,-601
716,1828,1534,-3808,1936,4593,228,-11,317,-601
717,1960,1586,-3924,2489,4400,-13,-11,317,-601
718,2008,1374,-4350,2554,4180,-199,-11,317,-601
719,2105,1254,-4527,2519,3947,-362,-11,317,-601
720,2187,1074,-4416,2443,3700,-521,-11,317,-601
721,2145,986,-4294,2256,3529,-620,-11,317,-601
722,2083,914,-4072,2054,3522,-677,-11,317,-601
723,2078,889,-3891,1904,3592,-733,-11,317,-601
724,2081,842,-3725,1791,3673,-761,60,275,-612
725,2105,864,-3692,1775,3729,-789,60,275,-612
726,2134,872,-3686,1770,3826,-843,60,275,-612
727,2234,991,-3684,1807,3923,-917,60,275,-612
728,2219,1024,-3719,1883,4032,-1013,60,275,-612
729,2172,1003,-3688,1908,4161,-1113,60,275,-612
730,2115,1062,-3585,1938,4367,-1232,60,275,-612
731,2276,1047,-3390,2135,4451,-1335,60,275,-612
732,2247,1071,-3326,2098,4612,-1385,60,275,-612
733,2230,1144,-3293,2031,4805,-1476,60,275,-612
734,2350,1375,-3248,2051,4922,-1596,60,275,-612
735,2444,1566,-3324,2265,4901,-1775,60,275,-612
736,2493,1736,-3496,2577,4745,-1994,60,275,-612
737,2566,1777,-3683,2912,4559,-2243,60,275,-612
738,2668,1801,-3837,3103,4367,-2510,60,275,-612
739,2757,1780,-3831,3192,4184,-2753,60,275,-612
740,2866,1762,-3823,3224,4029,-2988,134,243,-613
741,3011,1808,-3812,3370,3768,-3276,134,243,-613
742,3091,1726,-3897,3521,3360,-3516,134,243,-613
743,3111,1647,-3980,3662,2917,-3781,134,243,-613
744,3045,1324,-4088,3745,2527,-3997,134,243,-613
745,2975,994,-4093,3721,2179,-4123,134,243,-613
746,2886,684,-4106,3596,1827,-4188,134,243,-613
747,2809,388,-4134,3539,1455,-4231,134,243,-613
748,2648,52,-4209,3563,1160,-4235,134,243,-613
749,2566,-323,-4318,3439,936,-4177,134,243,-613
750,2469,-695,-4397,3150,679,-4041,134,243,-613
751,2058,-1304,-4582,2593,679,-3767,134,243,-613
752,2218,-1149,-4481,2100,512,-3454,134,243,-613
753,1959,-970,-4485,1929,445,-3197,134,243,-613
754,2161,-1112,-4393,1590,360,-2884,134,243,-613
755,2339,-1033,-4315,1179,70,-2543,143,202,-625
756,2511,-734,-4271,889,-382,-2281,143,202,-625
757,2469,-583,-4276,601,-747,-2048,143,202,-625
758,2552,-418,-4241,346,-964,-1900,143,202,-625
759,2725,-263,-4232,79,-1267,-1823,143,202,-625
760,2863,-247,-4013,-192,-1844,-1768,143,202,-625
761,2672,-209,-3940,-508,-2214,-1650,143,202,-625
762,2764,154,-4122,-646,-2540,-1536,143,202,-625
763,2738,177,-4398,-878,-2812,-1504,143,202,-625
764,2828,315,-4516,-872,-3122,-1570,143,202,-625
765,2949,354,-4625,-1007,-3480,-1651,143,202,-625
766,2942,249,-4850,-1245,-3905,-1749,143,202,-625
767,2904,160,-5096,-1482,-4304,-1844,143,202,-625
768,2878,-56,-5147,-1733,-4796,-1907,143,202,-625
769,2825,-348,-5293,-1890,-5483,-1909,143,202,-625
770,2571,-596,-5460,-2097,-6087,-1834,143,202,-625
771,2446,-705,-5660,-2328,-6606,-1686,62,237,-632
772,2341,-866,-5664,-2602,-7037,-1529,62,237,-632
773,2230,-886,-5532,-2962,-7339,-1374,62,237,-632
774,2202,-906,-5369,-3482,-7623,-1232,62,237,-632
775,1970,-788,-5172,-4020,-7739,-1058,62,237,-632
776,1905,-465,-4703,-4232,-7737,-940,62,237,-632
777,1787,-398,-4373,-4305,-7593,-839,62,237,-632
778,1860,-278,-3971,-4458,-7465,-743,62,237,-632
779,1798,222,-3492,-4244,-7267,-689,62,237,-632
780,1809,515,-3214,-3771,-7081,-695,62,237,-632
781,1169,323,-3234,-3246,-6376,-715,62,237,-632
782,1532,460,-3378,-2760,-6077,-673,62,237,-632
783,928,389,-3472,-2328,-5463,-685,62,237,-632
784,1486,266,-3650,-2193,-5490,-612,62,237,-632
785,1147,177,-4004,-2304,-5484,-531,62,237,-632
786,1375,209,-4207,-2490,-5312,-434,-87,319,-620
787,1351,343,-4201,-2564,-5395,-378,-87,319,-620
788,1159,378,-4062,-2542,-5147,-303,-87,319,-620
789,1168,400,-3973,-2576,-4973,-228,-87,319,-620
790,1053,467,-3820,-2486,-4778,-116,-87,319,-620
791,1082,437,-3593,-2324,-4655,3,-87,319,-620
792,950,391,-3629,-2111,-4560,133,-87,319,-620
793,813,296,-3755,-1841,-4398,288,-87,319,-620
794,724,190,-3865,-1669,-4238,465,-87,319,-620
795,713,81,-3869,-1641,-4086,650,-87,319,-620
796,655,66,-3871,-1653,-4002,854,-87,319,-620
797,564,149,-3833,-1574,-3840,1067,-87,319,-620
798,481,176,-3889,-1378,-3654,1259,-87,319,-620
799,469,114,-3888,-1148,-3536,1461,-87,319,-620
800,451,27,-3947,-985,-3474,1684,-87,319,-620
801,460,20,-3953,-931,-3432,1915,-87,319,-620
802,425,33,-3994,-956,-3435,2131,-150,349,-588
803,422,158,-3897,-982,-3393,2354,-150,349,-588
804,424,203,-3793,-1002,-3329,2563,-150,349,-588
805,409,272,-3671,-906,-3057,2756,-150,349,-588
806,388,246,-3546,-706,-2761,3009,-150,349,-588
807,314,435,-3508,-487,-2422,3178,-150,349,-588
808,356,620,-3495,-284,-2015,3319,-150,349,-588
809,647,806,-3423,-164,-1740,3373,-150,349,-588
810,737,1162,-3308,147,-1294,3414,-150,349,-588
811,849,1182,-3355,31,-976,3447,-150,349,-588
812,976,1017,-3452,-308,-678,3498,-150,349,-588
813,671,1727,-3497,-164,-312,3359,-150,349,-588
814,873,1351,-3283,243,72,3277,-150,349,-588
815,463,1386,-3322,505,607,3229,-150,349,-588
816,943,1181,-3241,659,873,3204,-150,349,-588
817,826,1028,-3093,862,886,3200,-150,349,-588
818,753,1116,-3196,608,961,3267,-140,362,-575
819,805,850,-3340,196,1068,3386,-140,362,-575
820,447,1595,-3606,234,1317,3384,-140,362,-575
821,684,977,-3580,193,1518,3421,-140,362,-575
822,604,1453,-3582,416,1720,3410,-140,362,-575
823,795,1233,-3550,610,1804,3423,-140,362,-575
824,779,1399,-3511,873,1855,3426,-140,362,-575
825,996,1236,-3742,881,1903,3465,-140,362,-575
826,955,1356,-3884,848,1901,3483,-140,362,-575
827,1036,1477,-3869,737,1916,3482,-140,362,-575
828,1405,1247,-3911,308,1672,3417,-140,362,-575
829,909,2095,-3781,679,2008,3245,-140,362,-575
830,1249,1721,-3763,492,2100,3072,-140,362,-575
831,1410,2092,-3527,895,2415,2856,-140,362,-575
832,1697,1729,-3167,981,2677,2751,-140,362,-575
833,1063,2050,-3172,1125,2902,2538,-140,362,-575
834,1141,1782,-3069,1484,3465,2371,-62,350,-596
835,1388,1968,-2879,1645,3681,2159,-62,350,-596
836,1164,1728,-2841,2049,4215,2039,-62,350,-596
837,1352,1634,-2808,2252,4585,1907,-62,350,-596
838,1292,1619,-2754,2574,4884,1796,-62,350,-596
839,1461,1565,-2913,2589,5162,1709,-62,350,-596
840,1321,1583,-3014,2704,5398,1598,-62,350,-596
841,1452,1517,-2964,2729,5629,1492,-62,350,-596
842,1585,1444,-2902,2751,5630,1409,-62,350,-596
843,1614,1410,-2768,2769,5762,1361,-62,350,-596
844,1736,1288,-2761,2789,5792,1281,-62,350,-596
845,1650,1188,-2997,2781,5950,1244,-62,350,-596
846,1982,1456,-3334,3070,5791,1196,-62,350,-596
847,1884,1249,-3676,3135,5757,1086,-62,350,-596
848,2138,1095,-3980,3021,5521,969,-62,350,-596
849,2278,1006,-4257,2706,5199,875,62,279,-612
850,2104,1242,-4301,2661,5152,768,62,279,-612
851,2327,1048,-4176,2335,4982,672,62,279,-612
852,2407,1647,-3868,2448,4761,521,62,279,-612
853,2295,1087,-3919,2467,4677,373,62,279,-612
854,2213,859,-4019,2212,4691,295,62,279,-612
855,2277,899,-3987,2048,4682,232,62,279,-612
856,2357,848,-4019,1863,4549,163,62,279,-612
857,2344,840,-3880,1603,4514,79,62,279,-612
858,2336,890,-3711,1279,4628,45,62,279,-612
859,2391,1131,-3620,965,4811,5,62,279,-612
860,2696,1580,-3387,1019,4859,-173,62,279,-612
861,2582,1608,-3399,1112,4863,-387,62,279,-612
862,2513,1619,-3321,1337,4963,-596,62,279,-612
863,2579,1602,-3289,1660,4982,-793,62,279,-612
864,2687,1363,-3354,2100,4907,-1009,62,279,-612
865,2594,1096,-3572,2405,4779,-1165,148,244,-606
866,2600,878,-3849,2615,4567,-1275,148,244,-606
867,2623,536,-4063,2604,4130,-1313,148,244,-606
868,2404,541,-4171,2397,4188,-1298,148,244,-606
869,2652,627,-4203,2243,4056,-1352,148,244,-606
870,2676,603,-4188,2055,3855,-1394,148,244,-606
871,2837,827,-4130,1929,3636,-1473,148,244,-606
872,2985,960,-4280,1932,3212,-1624,148,244,-606
873,2993,997,-4414,1940,2783,-1782,148,244,-606
874,3029,985,-4497,1902,2393,-1936,148,244,-606
875,3081,1014,-4457,1750,2064,-2078,148,244,-606
876,3173,1100,-4193,1583,1797,-2247,148,244,-606
877,3215,1198,-3957,1488,1646,-2400,148,244,-606
878,3237,1228,-3539,1486,1529,-2600,148,244,-606
879,3234,1236,-3371,1621,1431,-2796,148,244,-606
880,3123,1151,-3219,1800,1406,-2952,187,227,-610
881,3012,1076,-3184,1987,1458,-3071,187,227,-610
882,2932,985,-3181,2135,1495,-3165,187,227,-610
883,2880,924,-3228,2240,1471,-3225,187,227,-610
884,2909,828,-3343,2312,1358,-3264,187,227,-610
885,2921,757,-3461,2406,1162,-3295,187,227,-610
886,2864,677,-3587,2481,881,-3304,187,227,-610
887,2875,633,-3703,2638,570,-3347,187,227,-610
888,2758,393,-3871,2739,217,-3354,187,227,-610
889,2734,259,-4054,2686,-158,-3312,187,227,-610
890,2734,23,-4188,2464,-594,-3244,187,227,-610
891,2487,-312,-4467,1972,-804,-3156,187,227,-610
892,2779,-156,-4576,1419,-1188,-3062,187,227,-610
893,2666,-23,-4589,1230,-1590,-3030,187,227,-610
894,2808,-144,-4497,929,-2052,-2976,187,227,-610
895,2749,-150,-4619,470,-2550,-2868,187,227,-610
896,2741,-106,-4657,309,-3085,-2804,163,208,-618
897,2786,-132,-4667,-19,-3579,-2736,163,208,-618
898,2851,-250,-4717,-619,-4098,-2599,163,208,-618
899,2837,-269,-4794,-1422,-4438,-2457,163,208,-618
900,3009,-287,-4609,-1910,-4933,-2422,163,208,-618
901,3110,-252,-4389,-2410,-5509,-2371,163,208,-618
902,3028,-195,-4149,-2942,-5944,-2293,163,208,-618
903,3036,-61,-3805,-3151,-6331,-2276,163,208,-618
904,2811,-9,-3615,-3067,-6513,-2248,163,208,-618
905,2627,59,-3305,-2850,-6413,-2214,163,208,-618
906,2367,-8,-3101,-2463,-6124,-2197,163,208,-618
907,2118,-69,-3147,-1981,-5639,-2159,163,208,-618
908,2001,-191,-3195,-1561,-5169,-2087,163,208,-618
909,1739,-379,-3474,-1242,-4615,-1927,163,208,-618
910,1743,-376,-3629,-822,-4133,-1752,163,208,-618
911,1674,-369,-3957,-572,-3812,-1559,163,269,-628
912,1658,-425,-4378,-569,-3716,-1379,35,269,-628
913,1619,-367,-4742,-677,-3779,-1210,35,269,-628
914,1608,-184,-5072,-799,-3957,-1078,35,269,-628
915,1819,-55,-5304,-835,-4419,-1019,35,269,-628
916,1944,-116,-5483,-1013,-4939,-960,35,269,-628
917,2059,-196,-5403,-1494,-5677,-898,35,269,-628
918,2141,-242,-5276,-2149,-6363,-783,35,269,-628
919,2237,60,-4941,-2663,-6855,-725,35,269,-628
920,2183,398,-4632,-2809,-7187,-755,35,269,-628
921,2104,515,-4343,-2788,-7311,-828,35,269,-628
922,1821,489,-4227,-2728,-7213,-855,35,269,-628
923,1452,650,-4088,-2636,-6232,-916,35,269,-628
924,1495,354,-4025,-2572,-6125,-906,35,269,-628
925,991,175,-4045,-2654,-5546,-806,35,269,-628
926,1729,193,-3586,-2871,-5534,-701,35,269,-628
927,1384,367,-3328,-2933,-5404,-613,-90,321,-619
928,1080,391,-3167,-2900,-4772,-523,-90,321,-619
929,946,537,-3077,-2718,-4221,-442,-90,321,-619
930,827,554,-3181,-2318,-3621,-342,-90,321,-619
931,874,477,-3517,-1969,-3351,-217,-90,321,-619
932,849,431,-4039,-1739,-3299,-65,-90,321,-619
933,921,277,-4464,-1788,-3447,65,-90,321,-619
934,985,349,-4518,-2057,-3595,215,-90,321,-619
935,964,569,-4412,-2180,-3740,309,-90,321,-619
936,920,687,-4244,-2086,-3917,397,-90,321,-619
937,803,802,-4333,-1827,-4063,488,-90,321,-619
938,713,692,-4560,-1599,-4135,579,-90,321,-619
939,748,539,-4632,-1590,-4258,703,-90,321,-619
940,767,516,-4549,-1806,-4444,848,-90,321,-619
941,827,555,-4408,-2080,-4614,979,-90,321,-619
942,882,715,-4045,-2359,-4771,1065,-90,321,-619
943,851,977,-3459,-2336,-4850,1118,-154,354,-580
944,695,1132,-3290,-1990,-4697,1183,-154,354,-580
945,569,1163,-3169,-1548,-4354,1228,-154,354,-580
946,500,1102,-3092,-1291,-3946,1297,-154,354,-580
947,532,982,-2974,-1205,-3473,1386,-154,354,-580
948,491,1102,-2983,-1245,-3081,1496,-154,354,-580
949,508,1311,-2954,-1136,-2588,1542,-154,354,-580
950,500,1448,-3023,-760,-2147,1590,-154,354,-580
951,528,1378,-3150,-391,-1849,1637,-154,354,-580
952,441,1245,-3257,-133,-1583,1707,-154,354,-580
953,316,1027,-3509,54,-1296,1817,-154,354,-580
954,275,952,-3579,183,-1028,1933,-154,354,-580
955,355,956,-3558,433,-833,2066,-154,354,-580
956,306,625,-3541,693,-614,2243,-154,354,-580
957,161,823,-3645,1065,-335,2451,-154,354,-580
958,326,340,-3974,918,-282,2681,-154,354,-580
959,49,344,-4066,1089,-7,2932,-179,371,-563
960,214,306,-4266,1027,110,3171,-179,371,-563
961,3,360,-4407,1119,274,3398,-179,371,-563
962,211,390,-4342,987,323,3549,-179,371,-563
963,535,278,-4348,650,253,3711,-179,371,-563
964,305,753,-4369,390,278,3781,-179,371,-563
965,568,966,-4000,429,336,3820,-179,371,-563
966,629,1326,-3624,397,332,3879,-179,371,-563
967,762,1175,-3555,226,547,3832,-179,371,-563
968,666,1481,-3272,431,1014,3769,-179,371,-563
969,649,1590,-3102,242,1463,3691,-179,371,-563
970,652,2027,-2939,590,2096,3537,-179,371,-563
971,915,1767,-2880,769,2387,3365,-179,371,-563
972,851,1849,-2975,995,2575,3252,-179,371,-563
973,952,1421,-3242,846,2652,3192,-179,371,-563
974,522,1757,-3321,1102,2942,3075,-110,368,-581
975,626,1400,-3273,1116,3260,3030,-110,368,-581
976,881,1599,-3405,1369,3494,2906,-110,368,-581
977,1212,1497,-3538,1567,3482,2902,-110,368,-581
978,1220,1435,-3731,1548,3123,2886,-110,368,-581
979,923,1661,-3922,1767,3067,2716,-110,368,-581
980,1369,1312,-3894,1793,3078,2607,-110,368,-581
981,1240,1586,-3831,1898,3139,2544,-110,368,-581
982,1284,1495,-3769,1891,3011,2477,-110,368,-581
983,1246,1531,-3543,1874,2948,2392,-110,368,-581
984,1405,1881,-3253,2042,3057,2287,-110,368,-581
985,1478,1919,-3100,2145,3128,2152,-110,368,-581
986,1451,1855,-3111,2398,3242,2014,-110,368,-581
987,1588,1884,-2952,2540,3427,1880,-110,368,-581
988,1637,1908,-2825,2697,3538,1724,-110,368,-581
989,1677,1932,-2938,2883,3664,1491,-110,368,-581
990,1648,1822,-3059,2995,3824,1267,-13,313,-604
991,1689,1754,-3237,3230,3950,1061,-13,313,-604
992,1721,1590,-3409,3364,4080,836,-13,313,-604
993,1681,1359,-3603,3374,4307,627,-13,313,-604
994,1899,1100,-3639,3098,4448,471,-13,313,-604
995,1841,938,-3632,2815,4676,402,-13,313,-604
996,1889,948,-3546,2462,4942,366,-13,313,-604
997,1986,1022,-3290,2249,5103,293,-13,313,-604
998,2041,843,-3210,1968,5374,279,-13,313,-604
999,2083,987,-3186,1926,5527,282,-13,313,-604
1000,2078,987,-3385,1991,5609,236,-13,313,-604
1001,1940,940,-3762,2030,5779,189,-13,313,-604
1002,2101,1083,-4034,2015,5800,158,-13,313,-604
1003,2210,1000,-4282,1820,5592,129,-13,313,-604
1004,2288,1523,-4330,1987,5330,-11,-13,313,-604
1005,2398,1211,-4627,2058,4978,-190,-13,313,-604
1006,2300,1037,-5020,1802,4594,-320,80,260,-615
1007,2397,1106,-5179,1662,4146,-424,80,260,-615
1008,2425,1005,-5235,1512,3559,-551,80,260,-615
1009,2356,902,-5265,1137,3061,-613,80,260,-615
1010,2320,907,-4924,742,2718,-673,80,260,-615
1011,2264,884,-4449,353,2517,-741,80,260,-615
1012,2264,974,-3963,141,2558,-810,80,260,-615
1013,2289,1035,-3459,155,2705,-897,80,260,-615
1014,2260,1034,-3085,250,2870,-971,80,260,-615
1015,2320,1113,-2779,491,3121,-1064,80,260,-615
1016,2283,1173,-2893,804,3380,-1188,80,260,-615
1017,2322,1202,-3151,1100,3570,-1358,80,260,-615
1018,2425,1158,-3423,1294,3587,-1505,80,260,-615
1019,2481,1088,-3796,1340,3487,-1619,80,260,-615
1020,2535,1095,-3953,1248,3338,-1719,80,260,-615
1021,2576,1187,-3947,1164,3176,-1853,137,252,-616
1022,2536,1178,-3849,1155,3059,-1971,137,252,-616
1023,2546,1154,-3758,1217,2920,-2054,137,252,-616
1024,2618,1147,-3750,1379,2686,-2136,137,252,-616
1025,2621,972,-3778,1566,2412,-2177,137,252,-616
1026,2647,887,-3900,1716,2091,-2187,137,252,-616
1027,2653,806,-4145,1859,1723,-2184,137,252,-616
1028,2733,736,-4393,1862,1343,-2186,137,252,-616
1029,2796,711,-4526,1754,942,-2202,137,252,-616
1030,2833,672,-4496,1593,549,-2221,137,252,-616
1031,2775,627,-4426,1437,236,-2226,137,252,-616
1032,2731,590,-4319,1358,-39,-2252,137,252,-616
1033,2597,541,-4290,1391,-330,-2266,137,252,-616
1034,2546,394,-4340,1381,-659,-2233,137,252,-616
1035,2488,290,-4373,1321,-984,-2174,137,252,-616
1036,2390,259,-4335,1297,-1303,-2119,137,252,-616
1037,2309,257,-4408,1261,-1628,-2041,139,230,-616
1038,2141,266,-4408,1196,-1938,-1957,139,230,-616
1039,2094,244,-4381,1068,-2231,-1910,139,230,-616
1040,2207,174,-4101,792,-2522,-1826,139,230,-616
1041,2352,178,-3899,480,-2827,-1770,139,230,-616
1042,2484,260,-3570,190,-3046,-1737,139,230,-616
1043,2442,267,-3560,-96,-3096,-1695,139,230,-616
1044,2375,596,-3582,-16,-3094,-1741,139,230,-616
1045,2465,670,-3773,391,-3196,-1842,139,230,-616
1046,2702,451,-3959,638,-3498,-1915,139,230,-616
1047,2712,-60,-4473,427,-3772,-1857,139,230,-616
1048,2716,20,-4670,447,-4173,-1800,139,230,-616
1049,2558,-42,-5004,423,-4475,-1764,139,230,-616
1050,2412,-268,-5312,140,-4618,-1653,139,230,-616
1051,2487,-231,-5420,-162,-4951,-1548,139,230,-616
1052,2483,-244,-5323,-453,-5410,-1480,46,241,-630
1053,2419,-185,-5267,-765,-5786,-1415,46,241,-630
1054,2203,-243,-4961,-1013,-6036,-1402,46,241,-630
1055,2247,-397,-4509,-1320,-6413,-1338,46,241,-630
1056,1963,-393,-4253,-1500,-6617,-1201,46,241,-630
1057,1731,-129,-4054,-1281,-6727,-1115,46,241,-630
1058,1446,-50,-3961,-1438,-6694,-1010,46,241,-630
1059,1134,-329,-3820,-1760,-6171,-951,46,241,-630
1060,839,-69,-3504,-2098,-5701,-884,46,241,-630
1061,1727,270,-2918,-1927,-5549,-916,46,241,-630
1062,1695,367,-2726,-1546,-5144,-974,46,241,-630
1063,1431,248,-3055,-1303,-4542,-957,46,241,-630
1064,1294,221,-3481,-1060,-4182,-933,46,241,-630
1065,1116,79,-3990,-864,-3879,-907,46,241,-630
1066,1141,-68,-4705,-705,-3761,-841,46,241,-630
1067,1079,-160,-5277,-663,-3809,-726,46,241,-630
1068,1100,-281,-5704,-811,-3961,-612,-73,279,-635
1069,1279,-385,-5902,-1115,-4347,-489,-73,279,-635
1070,1195,-503,-5979,-1579,-4781,-355,-73,279,-635
1071,1265,-557,-5836,-2190,-5251,-213,-73,279,-635
1072,1046,-432,-5598,-2800,-5601,-71,-73,279,-635
1073,987,-250,-5305,-3367,-5759,74,-73,279,-635
1074,1057,-34,-4719,-3841,-5818,168,-73,279,-635
1075,1454,368,-3567,-4122,-5936,211,-73,279,-635
1076,1357,1041,-2448,-3634,-5939,138,-73,279,-635
1077,1009,1241,-2099,-2735,-5503,99,-73,279,-635
1078,780,1207,-2192,-1820,-4891,67,-73,279,-635
1079,628,964,-2587,-1221,-4249,84,-73,279,-635
1080,519,695,-3195,-1000,-3773,139,-73,279,-635
1081,480,504,-3808,-953,-3483,224,-73,279,-635
1082,467,442,-4121,-936,-3326,297,-73,279,-635
1083,502,358,-4360,-891,-3236,388,-73,279,-635
1084,512,240,-4472,-905,-3351,502,-161,319,-603
1085,482,148,-4646,-972,-3389,638,-161,319,-603
1086,365,-18,-4612,-1114,-3551,825,-161,319,-603
1087,368,-73,-4511,-1353,-3610,1049,-161,319,-603
1088,338,5,-4247,-1627,-3660,1261,-161,319,-603
1089,299,132,-4046,-1796,-3596,1463,-161,319,-603
1090,325,256,-3944,-1788,-3485,1652,-161,319,-603
1091,247,330,-3905,-1670,-3287,1831,-161,319,-603
1092,299,279,-3970,-1599,-3090,2003,-161,319,-603
1093,301,245,-3982,-1652,-2965,2169,-161,319,-603
1094,248,508,-3866,-1720,-2791,2325,-161,319,-603
1095,290,942,-3584,-1453,-2603,2356,-161,319,-603
1096,338,1068,-3421,-1112,-2285,2398,-161,319,-603
1097,464,1154,-3384,-729,-2059,2384,-161,319,-603
1098,228,1078,-3514,-531,-1705,2375,-161,319,-603
1099,81,1173,-3527,-299,-1323,2386,-161,319,-603
1100,218,1186,-3451,-97,-1119,2355,-161,319,-603
1101,277,1111,-3536,55,-920,2326,-161,319,-603
1102,235,1034,-3403,-16,-753,2297,-161,319,-603
1103,145,1036,-3257,-102,-479,2336,-161,319,-603
1104,99,1076,-3092,-58,-57,2384,-161,319,-603
1105,369,568,-2899,-46,167,2548,-161,319,-603
1106,-189,906,-3058,595,605,2696,-161,319,-603
1107,-45,-121,-3257,904,808,2965,-161,319,-603
1108,-689,58,-3683,1103,1268,3171,-161,319,-603
1109,-28,-404,-3875,937,1523,3489,-161,319,-603
1110,264,92,-4024,673,1457,3739,-161,319,-603
1111,118,84,-4311,644,1402,3989,-161,319,-603
1112,397,288,-4572,141,975,4065,-161,319,-603
1113,486,719,-4358,254,1224,4114,-161,319,-603
1114,781,721,-4296,-265,1144,4135,-161,319,-603
1115,702,1265,-4278,-342,1305,4069,-147,362,-583
1116,815,1463,-3956,-500,1414,3961,-147,362,-583
1117,1237,1955,-3866,-725,1307,3763,-147,362,-583
1118,962,2468,-3600,-396,1840,3547,-147,362,-583
1119,939,2413,-3459,-478,1986,3242,-147,362,-583
1120,1157,2514,-3121,-69,2181,2942,-147,362,-583
1121,1171,2722,-2927,244,2491,2631,-147,362,-583
1122,1218,2243,-2936,557,2699,2414,-147,362,-583
1123,906,2249,-3025,1006,3019,2198,-147,362,-583
1124,999,1790,-3079,1162,3276,2051,-147,362,-583
1125,1018,1712,-3175,1278,3367,1961,-147,362,-583
1126,948,1630,-3214,1393,3590,1895,-147,362,-583
1127,1225,1604,-3198,1521,3607,1801,-147,362,-583
1128,1098,1570,-3161,1866,3859,1750,-147,362,-583
1129,1113,1458,-3095,2065,4100,1704,-147,362,-583
1130,1166,1340,-3153,2093,4248,1672,-147,362,-583
1131,1212,1344,-3059,2235,4514,1640,-55,331,-596
1132,1275,1355,-3001,2296,4698,1592,-55,331,-596
1133,1318,1474,-3019,2267,4854,1516,-55,331,-596
1134,1449,1632,-3128,2383,4965,1379,-55,331,-596
1135,1492,1775,-3489,2653,5033,1194,-55,331,-596
1136,1679,1823,-3796,2866,4964,970,-55,331,-596
1137,1856,1703,-4146,2902,4738,744,-55,331,-596
1138,1866,1550,-4475,2882,4447,531,-55,331,-596
1139,1864,1561,-4568,2871,4212,353,-55,331,-596
1140,1817,1439,-4545,2665,4186,191,-55,331,-596
1141,1915,1388,-4489,2399,4177,58,-55,331,-596
1142,1957,1441,-4282,2071,4142,-75,-55,331,-596
1143,2022,1447,-4094,1776,4237,-192,-55,331,-596
1144,2097,1650,-3774,1473,4312,-324,-55,331,-596
1145,2160,1909,-3555,1496,4403,-516,-55,331,-596
1146,2122,1956,-3359,1517,4551,-739,-55,331,-596
1147,2135,1918,-3240,1790,4707,-962,31,284,-615
1148,2120,1675,-3131,2276,4817,-1150,31,284,-615
1149,2021,1549,-3206,2660,5050,-1255,31,284,-615
1150,1992,969,-3395,2896,5216,-1318,31,284,-615
1151,1847,751,-3491,2715,5440,-1291,31,284,-615
1152,2046,678,-3600,2414,5473,-1264,31,284,-615
1153,2122,816,-3746,2260,5390,-1283,31,284,-615
1154,2110,983,-3959,2281,5355,-1377,31,284,-615
1155,2255,1004,-4307,2341,5190,-1488,31,284,-615
1156,2410,1116,-4653,2425,4809,-1646,31,284,-615
1157,2510,1092,-5030,2530,4286,-1828,31,284,-615
1158,2509,1012,-5254,2321,3808,-1979,31,284,-615
1159,2597,986,-5334,2034,3374,-2113,31,284,-615
1160,2568,1001,-5408,1813,2983,-2250,31,284,-615
1161,2625,1121,-5290,1698,2588,-2406,31,284,-615
1162,2723,1155,-5161,1619,2165,-2571,101,248,-628
1163,2707,1195,-5013,1537,1754,-2743,101,248,-628
1164,2747,1115,-4733,1410,1350,-2871,101,248,-628
1165,2737,1044,-4448,1286,949,-2993,101,248,-628
1166,2630,961,-4188,1196,699,-3096,101,248,-628
1167,2531,797,-3806,1104,608,-3164,101,248,-628
1168,2446,754,-3531,1065,613,-3208,101,248,-628
1169,2383,736,-3379,1160,705,-3264,101,248,-628
1170,2309,706,-3387,1390,815,-3336,101,248,-628
1171,2249,521,-3506,1626,893,-3372,101,248,-628
1172,2211,400,-3665,1833,817,-3354,101,248,-628
1173,2138,303,-3820,2015,671,-3316,101,248,-628
1174,2020,214,-3941,1995,489,-3241,101,248,-628
1175,2004,261,-4082,1839,230,-3136,101,248,-628
1176,2026,309,-4161,1671,-121,-3076,101,248,-628
1177,1946,346,-4291,1511,-439,-3031,101,248,-628
1178,2184,272,-4425,1169,-729,-2977,94,228,-628
1179,2392,413,-4502,1135,-1093,-2968,94,228,-628
1180,2484,288,-4646,1133,-1432,-2956,94,228,-628
1181,2575,102,-4769,1201,-1866,-2950,94,228,-628
1182,2551,-15,-4929,1068,-2310,-2882,94,228,-628
1183,2427,-391,-5225,885,-2703,-2738,94,228,-628
1184,2322,-365,-5523,482,-2989,-2550,94,228,-628
1185,2301,-248,-5735,49,-3370,-2404,94,228,-628
1186,2222,-121,-5868,-213,-3893,-2347,94,228,-628
1187,2537,-559,-5785,-649,-4480,-2419,94,228,-628
1188,2895,-889,-5380,-1397,-5633,-2272,94,228,-628
1189,2601,-673,-5094,-1908,-6500,-2093,94,228,-628
1190,2226,-497,-4840,-2006,-6838,-2007,94,228,-628
1191,1849,-742,-4644,-2074,-6811,-1901,94,228,-628
1192,1584,-506,-4550,-2100,-6621,-1764,94,228,-628
1193,1566,-655,-4564,-1899,-6570,-1618,-20,261,-636
1194,1245,-897,-4564,-2098,-6359,-1453,-20,261,-636
1195,1589,-832,-4289,-2635,-6631,-1197,-20,261,-636
1196,1371,-564,-4210,-2635,-6841,-1022,-20,261,-636
1197,377,-456,-4105,-2517,-5794,-967,-20,261,-636
1198,1084,-211,-4205,-2426,-6020,-832,-20,261,-636
1199,601,-261,-4411,-2349,-5697,-730,-20,261,-636
1200,1298,-289,-4423,-2582,-5563,-632,-20,261,-636
1201,1279,-25,-4503,-2660,-5925,-605,-20,261,-636
1202,1046,273,-4340,-2675,-5740,-571,-20,261,-636
1203,1216,575,-4088,-2539,-5804,-636,-20,261,-636
1204,1018,703,-4002,-2127,-5616,-699,-20,261,-636
1205,1091,590,-4029,-1935,-5419,-729,-20,261,-636
1206,960,413,-4112,-1953,-5230,-736,-20,261,-636
1207,949,334,-4243,-2026,-5122,-692,-20,261,-636
1208,908,326,-4295,-2208,-5093,-646,-20,261,-636
1209,908,371,-4443,-2333,-5079,-605,-141,318,-616
1210,867,300,-4283,-2446,-5028,-526,-141,318,-616
1211,892,246,-4038,-2596,-4992,-444,-141,318,-616
1212,686,210,-3878,-2652,-4851,-312,-141,318,-616
1213,559,188,-3807,-2630,-4656,-141,-141,318,-616
1214,397,98,-3757,-2513,-4431,23,-141,318,-616
1215,313,64,-3806,-2348,-4260,216,-141,318,-616
1216,202,21,-4001,-2244,-4161,426,-141,318,-616
1217,239,-51,-4032,-2302,-4140,612,-141,318,-616
1218,221,28,-3993,-2429,-4128,801,-141,318,-616
1219,240,260,-3689,-2510,-4019,942,-141,318,-616
1220,203,430,-3496,-2389,-3819,1088,-141,318,-616
1221,174,549,-3311,-2067,-3497,1242,-141,318,-616
1222,142,572,-3331,-1741,-3296,1384,-141,318,-616
1223,88,545,-3390,-1462,-2998,1499,-141,318,-616
1224,16,537,-3460,-1291,-2713,1669,-141,318,-616
1225,48,563,-3390,-1167,-2420,1829,-207,354,-565
1226,35,635,-3303,-1024,-2157,1993,-207,354,-565
1227,2,676,-3273,-739,-1833,2175,-207,354,-565
1228,5,646,-3219,-404,-1538,2336,-207,354,-565
1229,39,587,-3190,-89,-1301,2501,-207,354,-565
1230,-23,536,-3377,194,-1051,2690,-207,354,-565
1231,-31,553,-3559,423,-752,2864,-207,354,-565
1232,78,552,-3666,610,-539,2961,-207,354,-565
1233,283,585,-3796,810,-285,3163,-207,354,-565
1234,185,724,-3844,734,-98,3282,-207,354,-565
1235,294,540,-3864,529,84,3396,-207,354,-565
1236,384,621,-3820,189,276,3468,-207,354,-565
1237,309,1007,-3855,53,569,3538,-207,354,-565
1238,424,941,-3763,-154,813,3556,-207,354,-565
1239,472,985,-3725,-243,1016,3587,-207,354,-565
1240,254,1016,-3534,-3,1362,3687,-207,354,-565
1241,59,950,-3579,162,1591,3733,-179,369,-566
1242,152,931,-3500,467,1864,3813,-179,369,-566
1243,263,975,-3414,851,1972,3826,-179,369,-566
1244,271,931,-3357,922,2215,3903,-179,369,-566
1245,763,588,-3547,414,2139,3976,-179,369,-566
1246,220,1305,-3442,746,2602,3980,-179,369,-566
1247,352,1021,-3399,541,2974,3960,-179,369,-566
1248,488,1331,-3346,723,3220,3969,-179,369,-566
1249,799,1550,-3433,870,3403,3900,-179,369,-566
1250,1138,1672,-3418,693,3412,3795,-179,369,-566
1251,949,1732,-3435,399,3413,3779,-179,369,-566
1252,1068,2213,-3527,145,3348,3482,-179,369,-566
1253,988,2217,-3311,1052,4050,3303,-179,369,-566
1254,1567,1893,-3585,692,4010,3067,-179,369,-566
1255,1357,2567,-3706,1456,4234,2824,-179,369,-566
1256,1632,2208,-3929,1707,4042,2565,-76,360,-591
1257,1695,2206,-4295,1955,3644,2282,-76,360,-591
1258,1646,1921,-4564,2111,3388,2074,-76,360,-591
1259,1613,1740,-4683,2078,3042,1905,-76,360,-591
1260,1579,1612,-4533,2022,2853,1736,-76,360,-591
1261,1527,1495,-4190,1980,2741,1613,-76,360,-591
1262,1472,1458,-4084,1923,2897,1573,-76,360,-591
1263,1366,1765,-3933,1911,3026,1450,-76,360,-591
1264,1531,1648,-3808,1902,3224,1345,-76,360,-591
1265,1611,1769,-3792,1803,3331,1215,-76,360,-591
1266,1521,1942,-3553,1930,3494,1007,-76,360,-591
1267,1717,1943,-3283,2181,3674,832,-76,360,-591
1268,1622,1910,-3189,2454,3866,685,-76,360,-591
1269,1497,1857,-3097,2718,4164,527,-76,360,-591
1270,1509,1722,-3008,2903,4397,418,-76,360,-591
1271,1464,1573,-2843,3103,4804,305,-76,360,-591
1272,1607,1423,-2707,3258,4989,281,13,299,-609
1273,1565,1225,-2554,3328,5224,262,13,299,-609
1274,1587,1071,-2491,3372,5446,262,13,299,-609
1275,1575,950,-2459,3268,5812,248,13,299,-609
1276,1679,877,-2471,3139,6165,269,13,299,-609
1277,1671,809,-2511,2970,6541,285,13,299,-609
1278,1823,762,-2568,2853,6799,247,13,299,-609
1279,1994,1068,-2951,2963,6851,180,13,299,-609
1280,2285,1173,-3436,3156,6693,25,13,299,-609
1281,2375,1164,-3939,3282,6405,-164,13,299,-609
1282,2503,951,-4305,3246,6002,-362,13,299,-609
1283,2533,952,-4575,3041,5565,-521,13,299,-609
1284,2615,1002,-4658,3215,5048,-756,13,299,-609
1285,2356,804,-4698,2688,4836,-838,13,299,-609
1286,2432,817,-4706,2168,4708,-894,13,299,-609
1287,2663,918,-4642,2067,4349,-1025,13,299,-609
1288,2631,865,-4679,2078,3983,-1126,116,242,-618
1289,2568,658,-4730,1971,3657,-1237,116,242,-618
1290,2563,586,-4802,1895,3327,-1284,116,242,-618
1291,2480,492,-4787,1743,3111,-1255,116,242,-618
1292,2448,573,-4697,1559,2968,-1266,116,242,-618
1293,2448,738,-4515,1425,2810,-1331,116,242,-618
1294,2540,875,-4358,1310,2606,-1403,116,242,-618
1295,2538,1145,-4158,1254,2380,-1544,116,242,-618
1296,2552,1282,-3980,1203,2169,-1725,116,242,-618
1297,2564,1427,-3803,1222,2012,-1943,116,242,-618
1298,2540,1501,-3587,1305,1877,-2159,116,242,-618
1299,2532,1461,-3416,1404,1729,-2335,116,242,-618
1300,2469,1443,-3301,1482,1567,-2480,116,242,-618
1301,2440,1379,-3174,1511,1353,-2588,116,242,-618
1302,2447,1390,-3138,1567,1134,-2688,116,242,-618
1303,2470,1407,-3342,1748,973,-2845,147,225,-624
1304,2621,1352,-3507,1947,767,-3014,147,225,-624
1305,2767,1212,-3742,2035,482,-3176,147,225,-624
1306,2903,993,-3821,1977,56,-3294,147,225,-624
1307,2808,891,-4089,1845,-336,-3414,147,225,-624
1308,2778,781,-4289,1784,-575,-3517,147,225,-624
1309,3001,600,-4624,1872,-965,-3661,147,225,-624
1310,3020,301,-5016,1854,-1461,-3739,147,225,-624
1311,2928,30,-5284,1626,-1997,-3753,147,225,-624
1312,2823,-228,-5413,1201,-2536,-3678,147,225,-624
1313,2538,-488,-5638,540,-2879,-3548,147,225,-624
1314,2697,-428,-5655,-329,-3234,-3386,147,225,-624
1315,2779,-401,-5527,-834,-3757,-3325,147,225,-624
1316,2778,-419,-5337,-1238,-4318,-3222,147,225,-624
1317,2707,-395,-5109,-1574,-4841,-3087,147,225,-624
1318,2489,-394,-4849,-1920,-5233,-2952,147,225,-624
1319,2408,-346,-4551,-2092,-5529,-2790,81,231,-630
1320,2201,-395,-4425,-2277,-5648,-2602,81,231,-630
1321,2217,-404,-4172,-2450,-5761,-2487,81,231,-630
1322,2426,-449,-3725,-2629,-6223,-2334,81,231,-630
1323,2334,-352,-3707,-2598,-6654,-2185,81,231,-630
1324,2076,-339,-3850,-2348,-6725,-2061,81,231,-630
1325,1891,-363,-3989,-2134,-6582,-1915,81,231,-630
1326,1836,-529,-4469,-2301,-6373,-1754,81,231,-630
1327,1759,-389,-4768,-1995,-6328,-1663,81,231,-630
1328,1671,-456,-4853,-1641,-6295,-1583,81,231,-630
1329,1614,-842,-5190,-1755,-6344,-1439,81,231,-630
1330,1224,-1117,-5553,-2151,-6242,-1259,81,231,-630
1331,915,-1063,-6156,-2434,-5877,-1061,81,231,-630
1332,1615,-1045,-5752,-2726,-5840,-889,81,231,-630
1333,1577,-1003,-5545,-3147,-6187,-756,81,231,-630
1334,1256,-989,-5207,-3795,-6150,-564,-68,299,-623
1335,1657,-821,-4956,-4289,-6651,-421,-68,299,-623
1336,1179,-302,-4689,-4297,-6753,-341,-68,299,-623
1337,1339,-134,-4229,-4249,-6665,-258,-68,299,-623
1338,1270,138,-3869,-4058,-6562,-202,-68,299,-623
1339,1197,317,-3511,-3800,-6276,-145,-68,299,-623
1340,1137,472,-3316,-3520,-5939,-86,-68,299,-623
1341,1022,484,-3287,-3111,-5581,-16,-68,299,-623
1342,929,464,-3364,-2682,-5243,110,-68,299,-623
1343,792,424,-3431,-2255,-4850,246,-68,299,-623
1344,639,308,-3629,-1861,-4501,407,-68,299,-623
1345,524,255,-3800,-1553,-4200,577,-68,299,-623
1346,503,180,-3875,-1375,-3982,778,-68,299,-623
1347,466,120,-3897,-1309,-3810,975,-68,299,-623
1348,493,150,-3746,-1278,-3688,1197,-68,299,-623
1349,489,275,-3647,-1235,-3559,1393,-68,299,-623
1350,433,338,-3623,-1155,-3347,1583,-162,361,-587
1351,445,316,-3545,-1027,-3131,1775,-162,361,-587
1352,417,211,-3593,-879,-2948,1968,-162,361,-587
1353,296,120,-3712,-766,-2752,2192,-162,361,-587
1354,257,83,-3746,-663,-2514,2416,-162,361,-587
1355,198,139,-3793,-622,-2226,2621,-162,361,-587
1356,208,308,-3762,-631,-1928,2786,-162,361,-587
1357,363,564,-3702,-630,-1663,2921,-162,361,-587
1358,539,805,-3676,-486,-1443,2936,-162,361,-587
1359,556,568,-3750,-327,-1192,2940,-162,361,-587
1360,530,730,-3790,-215,-1046,3058,-162,361,-587
1361,517,495,-3827,-459,-855,3142,-162,361,-587
1362,562,687,-3798,-715,-589,3236,-162,361,-587
1363,444,905,-3721,-756,-172,3280,-162,361,-587
1364,430,945,-3469,-859,15,3308,-162,361,-587
1365,610,1007,-3231,-777,264,3338,-162,361,-587
1366,565,1206,-3189,-504,657,3369,-147,367,-569
1367,263,788,-3186,-445,996,3465,-147,367,-569
1368,392,1193,-3083,9,1154,3475,-147,367,-569
1369,476,1102,-3107,61,1483,3561,-147,367,-569
1370,478,1119,-3163,42,1824,3590,-147,367,-569
1371,351,1244,-2929,377,2257,3644,-147,367,-569
1372,762,1197,-2862,579,2530,3688,-147,367,-569
1373,791,1317,-3032,664,2675,3812,-147,367,-569
1374,1008,1256,-3261,400,2557,3808,-147,367,-569
1375,1219,1566,-3375,619,2667,3761,-147,367,-569
1376,1219,1999,-3413,656,2989,3667,-147,367,-569
1377,1415,1833,-3567,501,2876,3532,-147,367,-569
1378,1162,2519,-3482,896,2839,3356,-147,367,-569
1379,1516,2030,-3563,721,2716,3174,-147,367,-569
1380,1271,2317,-3551,983,2611,2970,-147,367,-569
1381,1345,2166,-3489,1170,2674,2743,-65,369,-573
1382,1329,2228,-3528,1341,2675,2531,-65,369,-573
1383,1248,2130,-3524,1522,2777,2324,-65,369,-573
1384,1388,2021,-3430,1676,2780,2147,-65,369,-573
1385,1447,1711,-3315,1777,2767,1985,-65,369,-573
1386,1347,1792,-3073,2184,2964,1861,-65,369,-573
1387,1245,1776,-2986,2422,3236,1737,-65,369,-573
1388,1248,1619,-2933,2623,3517,1614,-65,369,-573
1389,1335,1676,-2865,2983,3920,1516,-65,369,-573
1390,1459,1664,-2757,3206,4164,1396,-65,369,-573
1391,1547,1596,-2691,3397,4391,1316,-65,369,-573
1392,1593,1605,-2817,3663,4613,1236,-65,369,-573
1393,1566,1503,-2914,3818,4868,1135,-65,369,-573
1394,1615,1470,-2953,3843,5165,1041,-65,369,-573
1395,1854,1328,-2915,3663,5313,968,-65,369,-573
1396,1764,1272,-2909,3405,5572,860,-65,369,-573
1397,2230,1480,-2717,3310,5586,826,31,307,-613
1398,1841,1352,-2789,3149,5852,728,31,307,-613
1399,2069,1278,-2908,3132,6041,634,31,307,-613
1400,2330,1406,-3044,3329,5912,480,31,307,-613
1401,2235,1249,-3298,3491,5905,337,31,307,-613
1402,2332,1187,-3594,3666,5891,182,31,307,-613
1403,2380,1177,-3881,3721,5785,52,31,307,-613
1404,2339,1029,-4217,3620,5767,-88,31,307,-613
1405,2529,1601,-4214,3882,5681,-302,31,307,-613
1406,2578,1003,-4225,3789,5441,-503,31,307,-613
1407,2499,879,-4465,3263,5383,-584,31,307,-613
1408,2557,1010,-4329,2815,5365,-676,31,307,-613
1409,2820,1147,-4079,2768,5089,-834,31,307,-613
1410,2777,961,-4077,2716,4747,-939,31,307,-613
1411,2683,902,-4081,2660,4509,-1001,31,307,-613
1412,2689,787,-4182,2649,4282,-1081,31,307,-613
1413,2661,668,-4412,2690,4031,-1210,134,229,-616
1414,2496,522,-4699,2649,3692,-1276,134,229,-616
1415,2493,545,-4841,2526,3756,-1354,134,229,-616
1416,2653,553,-5014,2399,3467,-1486,134,229,-616
1417,2613,526,-5119,2140,3172,-1549,134,229,-616
1418,2738,645,-5028,1877,2773,-1637,134,229,-616
1419,2784,631,-4842,1595,2331,-1723,134,229,-616
1420,2745,754,-4584,1313,1961,-1793,134,229,-616
1421,2789,829,-4375,1114,1569,-1875,134,229,-616
1422,2743,937,-4173,897,1249,-1947,134,229,-616
1423,2727,1090,-4074,743,989,-2065,134,229,-616
1424,2724,1210,-3902,650,738,-2200,134,229,-616
1425,2717,1283,-3779,660,535,-2340,134,229,-616
1426,2762,1305,-3825,751,349,-2532,134,229,-616
1427,2791,1306,-3915,810,132,-2732,134,229,-616
1428,2842,1208,-3984,809,-158,-2916,147,219,-620
1429,2940,1028,-3962,724,-575,-3002,147,219,-620
1430,2919,917,-4042,585,-979,-3111,147,219,-620
1431,2786,817,-4073,437,-1249,-3189,147,219,-620
1432,2685,773,-4080,321,-1424,-3238,147,219,-620
1433,2728,716,-4079,270,-1664,-3246,147,219,-620
1434,2751,715,-4097,213,-2026,-3250,147,219,-620
1435,2789,741,-4177,220,-2462,-3303,147,219,-620
1436,2781,668,-4368,186,-2814,-3360,147,219,-620
1437,2813,588,-4558,65,-3145,-3403,147,219,-620
1438,2752,495,-4783,-84,-3472,-3482,147,219,-620
1439,2790,555,-4855,-123,-3736,-3599,147,219,-620
1440,2496,67,-5150,-505,-3907,-3564,147,219,-620
1441,2470,-134,-5034,-663,-4199,-3623,147,219,-620
1442,2445,-432,-4848,-913,-4686,-3530,147,219,-620
1443,2341,-691,-4631,-1223,-5192,-3351,147,219,-620
1444,2110,-738,-4516,-1537,-5503,-3146,69,248,-634
1445,1970,-877,-4247,-1932,-5554,-2886,69,248,-634
1446,2067,-799,-3919,-2325,-5672,-2629,69,248,-634
1447,2159,-546,-3623,-2599,-5860,-2459,69,248,-634
1448,2189,-419,-3605,-2663,-5986,-2321,69,248,-634
1449,2146,-306,-3571,-2565,-6102,-2205,69,248,-634
1450,1986,-241,-3731,-2298,-6208,-2084,69,248,-634
1451,1676,-312,-4041,-2205,-6135,-1982,69,248,-634
1452,1513,-176,-4342,-2127,-5949,-1873,69,248,-634
1453,1534,-13,-4754,-1654,-5934,-1805,69,248,-634
1454,1576,-233,-5154,-1397,-6103,-1737,69,248,-634
1455,1391,-566,-5536,-1698,-6205,-1614,69,248,-634
1456,1380,-380,-5476,-2155,-6179,-1458,69,248,-634
1457,1164,-102,-5291,-2363,-5656,-1409,69,248,-634
1458,1309,-96,-5023,-2512,-5679,-1327,69,248,-634
1459,1277,-189,-4911,-2627,-5782,-1257,-67,297,-618
1460,1426,-191,-4615,-2698,-5684,-1152,-67,297,-618
1461,1315,-202,-4488,-2727,-5842,-1044,-67,297,-618
1462,1111,-149,-4238,-2715,-5704,-916,-67,297,-618
1463,1090,-11,-4163,-2807,-5480,-789,-67,297,-618
1464,1015,151,-3858,-2846,-5108,-718,-67,297,-618
1465,1042,206,-3623,-2688,-4790,-620,-67,297,-618
1466,1080,52,-3516,-2468,-4592,-497,-67,297,-618
1467,1177,-77,-3394,-2305,-4639,-303,-67,297,-618
1468,842,-86,-3584,-2207,-4590,-85,-67,297,-618
1469,660,-33,-3767,-2131,-4263,131,-67,297,-618
1470,562,51,-3897,-1989,-3869,333,-67,297,-618
1471,535,203,-3983,-1814,-3506,488,-67,297,-618
1472,583,295,-4122,-1583,-3380,619,-67,297,-618
1473,717,293,-4264,-1440,-3351,764,-67,297,-618
1474,641,278,-4459,-1408,-3422,916,-67,297,-618
1475,575,187,-4544,-1332,-3380,1096,-161,354,-586
1476,444,114,-4587,-1173,-3275,1315,-161,354,-586
1477,330,-11,-4645,-1044,-3268,1568,-161,354,-586
1478,278,-95,-4530,-977,-3236,1819,-161,354,-586
1479,277,-47,-4471,-910,-3209,2056,-161,354,-586
1480,310,62,-4436,-891,-3130,2273,-161,354,-586
1481,413,126,-4289,-952,-3033,2463,-161,354,-586
1482,417,350,-4160,-982,-2921,2625,-161,354,-586
1483,392,481,-3973,-929,-2692,2768,-161,354,-586
1484,433,553,-3860,-904,-2478,2876,-161,354,-586
1485,478,647,-3846,-934,-2310,2951,-161,354,-586
1486,403,877,-3898,-916,-2135,2939,-161,354,-586
1487,682,956,-3887,-1063,-1951,2998,-161,354,-586
1488,548,1275,-3767,-937,-1841,2903,-161,354,-586
1489,521,1161,-3594,-1036,-1590,2908,-161,354,-586
1490,437,1191,-3430,-953,-1342,2918,-161,354,-586
1491,752,893,-3337,-901,-1098,2930,-172,378,-571
1492,532,1113,-3435,-978,-756,2938,-172,378,-571
1493,401,1250,-3398,-933,-410,2976,-172,378,-571
1494,563,1350,-3351,-941,-216,2939,-172,378,-571
1495,513,1321,-3230,-923,-30,3021,-172,378,-571
1496,506,1539,-3067,-466,-36,3022,-172,378,-571
1497,484,1395,-2805,-12,363,3029,-172,378,-571
1498,159,1398,-2819,175,870,3089,-172,378,-571
1499,407,1148,-2717,478,1310,3224,-172,378,-571
1500,548,998,-2556,628,1593,3399,-172,378,-571
1501,920,879,-2605,530,1816,3607,-172,378,-571
1502,666,1202,-2774,564,2012,3711,-172,378,-571
1503,404,1186,-2795,667,2501,3808,-172,378,-571
1504,320,1429,-2778,956,2901,3898,-172,378,-571
1505,462,1610,-2981,1016,2865,3788,-172,378,-571
1506,744,1784,-3067,1449,3015,3733,-172,378,-571
1507,1032,1857,-3488,1175,2751,3529,-172,378,-571
1508,916,2285,-3773,1364,2691,3279,-172,378,-571
1509,1250,2359,-3819,1273,2522,2978,-172,378,-571
1510,1261,2260,-3672,1380,2395,2672,-172,378,-571
1511,1198,2324,-3450,1679,2426,2400,-172,378,-571
1512,1301,2053,-3212,1782,2502,2222,-172,378,-571
1513,1288,2061,-3157,1837,2617,2032,-172,378,-571
1514,1180,1834,-3101,1823,2846,1909,-172,378,-571
1515,1302,1799,-3039,1918,2996,1797,-172,378,-571
1516,1094,1767,-3067,2269,3396,1675,-172,378,-571
1517,1243,1576,-2996,2547,3654,1611,-172,378,-571
1518,1213,1491,-2974,2858,3901,1559,-172,378,-571
1519,1279,1388,-3019,3057,4117,1539,-172,378,-571
1520,1363,1365,-3182,2980,4264,1514,-172,378,-571
1521,1393,1438,-3258,2826,4502,1476,-172,378,-571
1522,1513,1532,-3195,2604,4680,1406,-21,331,-595
1523,1605,1626,-3090,2473,4862,1320,-21,331,-595
1524,1671,1723,-2978,2396,5099,1215,-21,331,-595
1525,1840,1806,-2909,2464,5272,1081,-21,331,-595
1526,1839,1780,-2953,2588,5367,924,-21,331,-595
1527,1887,1781,-3186,3008,5299,716,-21,331,-595
1528,2013,1607,-3588,3230,5329,523,-21,331,-595
1529,2139,1496,-4007,3314,5052,351,-21,331,-595
1530,2012,1311,-4353,3164,4897,207,-21,331,-595
1531,2061,1309,-4600,2923,4764,56,-21,331,-595
1532,2119,1579,-4595,2662,4629,-120,-21,331,-595
1533,2248,1578,-4653,2503,4423,-341,-21,331,-595
1534,2261,1562,-4536,2377,4247,-547,-21,331,-595
1535,2454,1468,-4191,2562,3975,-793,-21,331,-595
1536,2428,1283,-4032,2256,3809,-902,-21,331,-595
1537,2258,1174,-3881,1994,3818,-988,-21,331,-595
1538,2233,1159,-3755,1861,3885,-1059,75,278,-619
1539,2230,1152,-3694,1747,3924,-1151,75,278,-619
1540,2166,1228,-3610,1724,3999,-1236,75,278,-619
1541,2213,1282,-3678,1718,4032,-1362,75,278,-619
1542,2240,1309,-3642,1625,4151,-1493,75,278,-619
1543,2380,1528,-3517,1640,4252,-1673,75,278,-619
1544,2555,1481,-3514,1768,4118,-1899,75,278,-619
1545,2436,1408,-3533,1821,4182,-2059,75,278,-619
1546,2512,1325,-3546,1913,4216,-2217,75,278,-619
1547,2612,1239,-3366,1999,4229,-2358,75,278,-619
1548,2724,1251,-3409,2071,4253,-2474,75,278,-619
1549,2809,1383,-3495,2175,4213,-2592,75,278,-619
1550,2879,1518,-3920,2374,4135,-2777,75,278,-619
1551,3000,1531,-4503,2636,3840,-3033,75,278,-619
1552,3178,1506,-5274,2853,3250,-3299,75,278,-619
1553,3228,1382,-5826,2908,2442,-3537,132,237,-614
1554,3199,1175,-6098,2758,1535,-3711,132,237,-614
1555,3175,971,-6107,2370,662,-3800,132,237,-614
1556,3131,745,-5725,1806,-118,-3812,132,237,-614
1557,3007,709,-5329,1273,-699,-3806,132,237,-614
1558,2888,690,-4996,990,-1176,-3795,132,237,-614
1559,2814,690,-4730,1040,-1652,-3807,132,237,-614
1560,2591,585,-4520,1158,-2099,-3802,132,237,-614
1561,2458,402,-4426,1188,-2529,-3797,132,237,-614
1562,2357,148,-4426,1008,-2978,-3750,132,237,-614
1563,2178,-539,-4498,599,-3246,-3685,132,237,-614
1564,2283,-584,-4319,-40,-3756,-3477,132,237,-614
1565,2047,-658,-4267,-418,-4080,-3269,132,237,-614
1566,1918,-714,-4208,-745,-4293,-3027,132,237,-614
1567,1856,-648,-4367,-927,-4530,-2832,132,237,-614
1568,1856,-626,-4631,-1204,-4735,-2659,132,237,-614
1569,1978,-339,-4934,-1451,-4982,-2555,51,255,-629
1570,2149,-91,-5269,-1686,-5213,-2555,51,255,-629
1571,2244,6,-5375,-2014,-5378,-2625,51,255,-629
1572,2362,74,-5357,-2263,-5615,-2684,51,255,-629
1573,2274,125,-5236,-2345,-5701,-2758,51,255,-629
1574,2286,-47,-4692,-2317,-5808,-2825,51,255,-629
1575,2257,-418,-4385,-2478,-5921,-2800,51,255,-629
1576,2157,-591,-4204,-2760,-6036,-2658,51,255,-629
1577,1791,-466,-4083,-3042,-5875,-2497,51,255,-629
1578,1666,-145,-4012,-2920,-5525,-2360,51,255,-629
1579,1634,136,-4104,-2448,-5183,-2286,51,255,-629
1580,1627,94,-4346,-2089,-5095,-2218,51,255,-629
1581,1215,-121,-4837,-2212,-4744,-2082,51,255,-629
1582,1393,-40,-4994,-2166,-4948,-1924,51,255,-629
1583,675,12,-5356,-2103,-4855,-1790,51,255,-629
1584,1305,-7,-4996,-2202,-5034,-1637,-81,316,-621
1585,1054,159,-4841,-2327,-5409,-1522,-81,316,-621
1586,833,293,-4619,-2433,-5100,-1380,-81,316,-621
1587,1042,468,-4340,-2356,-5140,-1317,-81,316,-621
1588,776,675,-4217,-1972,-4908,-1265,-81,316,-621
1589,720,709,-4257,-1554,-4748,-1188,-81,316,-621
1590,717,428,-4175,-1248,-4509,-1168,-81,316,-621
1591,1142,-167,-3747,-1385,-4523,-1176,-81,316,-621
1592,1255,-368,-3257,-1701,-4776,-981,-81,316,-621
1593,910,-384,-3123,-1749,-4593,-700,-81,316,-621
1594,798,-310,-3124,-1661,-4351,-411,-81,316,-621
1595,583,-98,-3254,-1484,-3971,-149,-81,316,-621
1596,522,138,-3483,-1304,-3540,50,-81,316,-621
1597,587,401,-3775,-1128,-3193,185,-81,316,-621
1598,590,510,-4169,-947,-2870,291,-81,316,-621
1599,627,526,-4494,-861,-2700,361,-81,316,-621
1600,667,491,-4765,-912,-2715,430,-165,342,-586
1601,717,408,-4892,-1057,-2828,515,-165,342,-586
1602,697,354,-4837,-1263,-3007,631,-165,342,-586
1603,573,353,-4683,-1399,-3132,772,-165,342,-586
1604,454,406,-4469,-1447,-3136,944,-165,342,-586
1605,379,439,-4278,-1441,-3075,1101,-165,342,-586
1606,303,523,-4085,-1411,-2954,1274,-165,342,-586
1607,294,593,-3978,-1393,-2835,1427,-165,342,-586
1608,320,654,-3836,-1337,-2717,1570,-165,342,-586
1609,274,703,-3793,-1193,-2576,1742,-165,342,-586
1610,192,604,-3780,-950,-2433,1925,-165,342,-586
1611,116,572,-3767,-703,-2284,2117,-165,342,-586
1612,13,516,-3763,-462,-2099,2334,-165,342,-586
1613,-34,335,-3618,-116,-1922,2584,-165,342,-586
1614,-180,64,-3743,290,-1670,2837,-165,342,-586
1615,-218,-133,-3972,507,-1452,3153,-165,342,-586
1616,-97,-104,-4087,459,-1250,3436,-190,373,-562
1617,115,154,-4097,301,-1042,3617,-190,373,-562
1618,515,561,-3916,141,-875,3670,-190,373,-562
1619,735,758,-3732,-42,-614,3690,-190,373,-562
1620,636,1611,-3586,-15,-300,3594,-190,373,-562
1621,843,1593,-3430,-174,10,3455,-190,373,-562
1622,682,1895,-3369,-1,404,3260,-190,373,-562
1623,1035,1564,-3362,64,593,3152,-190,373,-562
1624,489,1711,-3721,66,710,3025,-190,373,-562
1625,590,1475,-3667,45,776,2912,-190,373,-562
1626,633,1298,-3500,-288,691,2916,-190,373,-562
1627,795,1192,-3158,-521,587,2950,-190,373,-562
1628,356,1536,-2874,-30,729,2986,-190,373,-562
1629,572,1090,-2654,98,898,3056,-190,373,-562
1630,514,1472,-2644,526,1321,3144,-190,373,-562
1631,499,1220,-2840,644,1670,3235,-190,373,-562
1632,486,1334,-3103,729,1784,3326,-190,373,-562
1633,913,1182,-3425,381,1637,3375,-190,373,-562
1634,526,1851,-3582,452,1614,3325,-190,373,-562
1635,568,1884,-3593,394,1741,3201,-190,373,-562
1636,730,1814,-3459,615,1863,3153,-190,373,-562
1637,870,1997,-3372,685,1783,2938,-190,373,-562
1638,1093,2126,-3356,959,1977,2853,-190,373,-562
1639,1308,2037,-3303,742,1821,2783,-190,373,-562
1640,753,2314,-3433,837,1928,2527,-190,373,-562
1641,1197,2189,-3178,941,2022,2368,-190,373,-562
1642,1036,2351,-2935,1375,2296,2132,-190,373,-562
1643,1051,2082,-2760,1896,2664,1955,-190,373,-562
1644,1185,1995,-2637,2318,2828,1807,-190,373,-562
1645,1129,1663,-2689,2443,3120,1753,-190,373,-562
1646,1025,1583,-2779,2469,3393,1706,-190,373,-562
1647,1117,1480,-2875,2457,3733,1648,-62,342,-592
1648,1009,1642,-2849,2712,4257,1552,-62,342,-592
1649,1143,1465,-2860,2866,4617,1505,-62,342,-592
1650,1322,1349,-2851,2917,4753,1442,-62,342,-592
1651,1368,1287,-2974,2865,4836,1396,-62,342,-592
1652,1395,1197,-3042,2682,4979,1352,-62,342,-592
1653,1423,1246,-3028,2531,5165,1352,-62,342,-592
1654,1482,1323,-3077,2465,5316,1324,-62,342,-592
1655,1486,1472,-3230,2485,5622,1231,-62,342,-592
1656,1674,1508,-3324,2599,5793,1149,-62,342,-592
1657,2084,1492,-3338,2720,5578,1068,-62,342,-592
1658,1801,1337,-3732,2748,5497,958,-62,342,-592
1659,1954,1263,-3863,2633,5486,869,-62,342,-592
1660,2076,1293,-4016,2584,5260,735,-62,342,-592
1661,1870,1276,-4093,2416,5374,591,-62,342,-592
1662,2049,1305,-4016,2122,5398,493,-62,342,-592
1663,2160,1281,-3846,1815,5438,374,42,292,-611
1664,2271,1580,-3681,1759,5387,241,42,292,-611
1665,2398,2160,-3435,2017,5310,4,42,292,-611
1666,2407,1686,-3542,1988,5299,-230,42,292,-611
1667,2405,1609,-3707,1941,5427,-446,42,292,-611
1668,2552,1635,-3635,2024,5392,-654,42,292,-611
1669,2514,1407,-3711,2103,5312,-870,42,292,-611
1670,2407,1253,-3759,2116,5334,-1018,42,292,-611
1671,2521,1241,-3769,2275,5218,-1164,42,292,-611
1672,2450,1162,-3939,2168,5034,-1306,42,292,-611
1673,2329,1296,-4043,1921,5172,-1401,42,292,-611
1674,2595,1530,-3979,1704,5214,-1580,42,292,-611
1675,2738,1806,-3912,1516,5158,-1833,42,292,-611
1676,2935,2066,-4077,1574,4910,-2180,42,292,-611
1677,2974,2187,-4440,1823,4515,-2587,42,292,-611
1678,3062,2167,-4922,2151,3979,-2984,130,257,-616
1679,3107,1931,-5235,2349,3313,-3367,130,257,-616
1680,3099,1672,-5403,2302,2644,-3658,130,257,-616
1681,3045,1397,-5420,2146,2025,-3885,130,257,-616
1682,3064,1146,-5306,1980,1430,-4029,130,257,-616
1683,3034,945,-5037,1733,862,-4081,130,257,-616
1684,2969,858,-4788,1532,419,-4170,130,257,-616
1685,2932,777,-4632,1417,59,-4226,130,257,-616
1686,2816,643,-4495,1309,-281,-4239,130,257,-616
1687,2733,470,-4390,1164,-602,-4184,130,257,-616
1688,2664,387,-4280,922,-943,-4080,130,257,-616
1689,2594,452,-4259,819,-1248,-3983,130,257,-616
1690,2567,466,-4177,762,-1506,-3894,130,257,-616
1691,2534,471,-4219,774,-1755,-3786,130,257,-616
1692,2451,382,-4509,882,-2106,-3704,130,257,-616
1693,2356,49,-4832,1055,-2499,-3644,130,257,-616
1694,2468,-187,-5146,728,-3073,-3446,99,247,-620
1695,2475,-460,-5211,467,-3658,-3225,99,247,-620
1696,2332,-920,-5284,-30,-4191,-2943,99,247,-620
1697,2305,-983,-5315,-576,-4682,-2631,99,247,-620
1698,2256,-869,-5353,-927,-5091,-2345,99,247,-620
1699,2225,-915,-5484,-1238,-5537,-2086,99,247,-620
1700,2072,-974,-5525,-1753,-5763,-1827,99,247,-620
1701,1979,-782,-5482,-2022,-5917,-1621,99,247,-620
1702,2045,-767,-5534,-2214,-6059,-1513,99,247,-620
1703,2119,-863,-5328,-2510,-6266,-1437,99,247,-620
1704,2118,-791,-4961,-2714,-6512,-1315,99,247,-620
1705,2007,-643,-4692,-2790,-6654,-1211,99,247,-620
1706,1945,-490,-4460,-2778,-6709,-1110,99,247,-620
1707,2039,-429,-4188,-2784,-6689,-1069,99,247,-620
1708,2016,-410,-3989,-3246,-6603,-985,99,247,-620
1709,1747,245,-3982,-3275,-6268,-931,99,306,-612
1710,1849,718,-3955,-2724,-6035,-1004,-42,306,-612
1711,1722,716,-4221,-2295,-5860,-1088,-42,306,-612
1712,1342,609,-4464,-2381,-5329,-1090,-42,306,-612
1713,1602,611,-4535,-2428,-5308,-1069,-42,306,-612
1714,968,655,-4837,-2389,-5116,-1050,-42,306,-612
1715,1707,601,-4339,-2421,-4871,-1099,-42,306,-612
1716,1555,694,-4387,-2321,-5064,-1118,-42,306,-612
1717,817,606,-4523,-2232,-4684,-1055,-42,306,-612
1718,1251,542,-4605,-2139,-5005,-1009,-42,306,-612
1719,871,510,-4656,-2038,-4994,-955,-42,306,-612
1720,1087,272,-4508,-2156,-4961,-834,-42,306,-612
1721,1064,12,-4263,-2489,-4939,-727,-42,306,-612
1722,1043,-133,-3930,-2771,-4897,-489,-42,306,-612
1723,854,-136,-3746,-2934,-4943,-284,-42,306,-612
1724,653,-36,-3532,-2832,-4774,-55,-42,306,-612
1725,607,6,-3442,-2537,-4684,161,-147,362,-587
1726,479,36,-3547,-2271,-4548,392,-147,362,-587
1727,428,126,-3668,-2077,-4281,611,-147,362,-587
1728,359,224,-3714,-1895,-3957,811,-147,362,-587
1729,312,295,-3652,-1666,-3597,1008,-147,362,-587
1730,297,342,-3646,-1358,-3331,1229,-147,362,-587
1731,245,339,-3729,-1029,-3096,1461,-147,362,-587
1732,193,311,-3925,-691,-2920,1690,-147,362,-587
1733,246,191,-4224,-499,-2859,1911,-147,362,-587
1734,298,169,-4448,-451,-2849,2148,-147,362,-587
1735,309,207,-4614,-574,-2820,2365,-147,362,-587
1736,543,294,-4553,-882,-2810,2543,-147,362,-587
1737,636,548,-4275,-1202,-2823,2691,-147,362,-587
1738,771,836,-4066,-1227,-2728,2720,-147,362,-587
1739,725,721,-4021,-1114,-2472,2818,-147,362,-587
1740,593,1124,-3903,-981,-2341,2878,-147,362,-587
1741,478,929,-3868,-1078,-2194,2890,-171,382,-552
1742,521,1011,-3953,-1003,-1875,2908,-171,382,-552
1743,529,974,-3815,-797,-1442,2940,-171,382,-552
1744,356,888,-3779,-1073,-1316,3055,-171,382,-552
1745,188,1170,-3453,-898,-902,3128,-171,382,-552
1746,689,915,-3397,-1158,-842,3205,-171,382,-552
1747,-313,1096,-3340,-827,-369,3255,-171,382,-552
1748,519,745,-3026,-666,-142,3446,-171,382,-552
1749,293,1023,-2899,-400,28,3591,-171,382,-552
1750,190,1193,-2882,161,269,3711,-171,382,-552
1751,406,1003,-2910,384,506,3854,-171,382,-552
1752,186,945,-2946,366,674,3993,-171,382,-552
1753,178,1317,-2856,578,1073,4060,-171,382,-552
1754,870,941,-2570,365,1154,4111,-171,382,-552
1755,563,1847,-2232,613,1419,4152,-171,382,-552
1756,924,1654,-2044,410,1910,4130,-171,401,-547
1757,860,2205,-1837,461,2337,4015,-128,401,-547
1758,456,2620,-1932,663,2925,3799,-128,401,-547
1759,1103,2543,-1801,736,3226,3609,-128,401,-547
1760,940,2820,-2003,1142,3502,3344,-128,401,-547
1761,958,2671,-2178,1577,3886,3064,-128,401,-547
1762,1143,2395,-2363,1850,3926,2849,-128,401,-547
1763,1091,2324,-2712,2102,3977,2665,-128,401,-547
1764,1012,2175,-2856,2436,4334,2513,-128,401,-547
1765,1259,1888,-2911,2395,4454,2380,-128,401,-547
1766,1519,1927,-2954,2465,4545,2269,-128,401,-547
1767,1451,2054,-3020,2684,4708,2132,-128,401,-547
1768,1611,2035,-3059,2820,4791,2009,-128,401,-547
1769,1508,2016,-3174,2991,4977,1880,-128,401,-547
1770,1570,1995,-3277,3267,5090,1711,-128,401,-547
1771,1726,1926,-3298,3321,5155,1569,-128,401,-547
1772,1781,1865,-3278,3349,5194,1426,-14,356,-590
1773,1769,1756,-3143,3347,5278,1299,-14,356,-590
1774,1744,1642,-3127,3352,5373,1219,-14,356,-590
1775,1801,1578,-3144,3400,5435,1148,-14,356,-590
1776,1731,1548,-3116,3485,5523,1066,-14,356,-590
1777,1788,1483,-3101,3583,5661,1000,-14,356,-590
1778,1853,1460,-3169,3732,5596,913,-14,356,-590
1779,1893,1352,-3367,3592,5682,870,-14,356,-590
1780,2068,1369,-3440,3287,5647,785,-14,356,-590
1781,2022,1324,-3433,3086,5531,658,-14,356,-590
1782,1991,1225,-3387,2815,5620,596,-14,356,-590
1783,1979,1229,-3322,2725,5774,521,-14,356,-590
1784,2224,1540,-3162,2646,5892,435,-14,356,-590
1785,2253,1610,-3225,2580,6004,320,-14,356,-590
1786,2612,2287,-2948,2936,5872,120,-14,356,-590
1787,2514,1822,-3116,2852,5866,-119,-14,356,-590
1788,2408,1845,-3124,2704,6123,-272,-14,356,-590
1789,2622,1909,-3195,2857,6260,-521,-14,356,-590
1790,2807,2013,-3263,3312,6112,-780,-14,356,-590
1791,2850,1655,-3725,3710,5688,-1019,-14,356,-590
1792,2565,1447,-4312,3859,5241,-1346,-14,356,-590
1793,2514,1321,-5002,3832,5011,-1514,-14,356,-590
1794,2855,1245,-5528,3705,4604,-1736,-14,356,-590
1795,3041,1148,-5814,3324,3796,-1973,-14,356,-590
1796,3052,1082,-5934,2661,3052,-2090,-14,356,-590
1797,2966,1202,-5830,2049,2521,-2240,-14,356,-590
1798,3035,1352,-5535,1621,1993,-2402,-14,356,-590
1799,3123,1408,-5229,1488,1464,-2573,-14,356,-590
1800,3116,1251,-4923,1527,889,-2744,-14,356,-590
1801,2996,966,-4623,1602,432,-2842,-14,356,-590
1802,2880,778,-4440,1599,192,-2918,-14,356,-590
1803,2784,567,-4263,1580,26,-2999,138,248,-613
1804,2728,394,-4202,1502,-88,-3005,138,248,-613
1805,2700,233,-4114,1321,-141,-2961,138,248,-613
1806,2687,216,-4063,1093,-243,-2883,138,248,-613
1807,2625,284,-4067,886,-378,-2798,138,248,-613
1808,2615,435,-4098,630,-550,-2722,138,248,-613
1809,2712,604,-4122,352,-850,-2613,138,248,-613
1810,2746,835,-4348,145,-1202,-2631,138,248,-613
1811,2802,992,-4651,13,-1559,-2712,138,248,-613
1812,2922,1170,-5007,-74,-2072,-2847,138,248,-613
1813,2942,1199,-5270,-225,-2670,-3017,138,248,-613
1814,2958,1238,-5596,-352,-3364,-3246,138,248,-613
1815,2863,1203,-5837,-458,-4118,-3437,138,248,-613
1816,2880,1198,-6078,-436,-4933,-3691,138,248,-613
1817,2780,465,-6339,-832,-5626,-3802,138,248,-613
1818,2844,218,-6325,-1290,-6443,-3852,138,248,-613
1819,2698,-289,-6298,-1928,-7140,-3877,69,268,-628
1820,2805,-589,-5987,-2504,-7704,-3895,69,268,-628
1821,2751,-876,-5712,-3111,-8310,-3768,69,268,-628
1822,2532,-1262,-5480,-3722,-8666,-3557,69,268,-628
1823,2393,-1165,-5000,-3952,-8934,-3358,69,268,-628
1824,2124,-1059,-4545,-3786,-9033,-3120,69,268,-628
1825,2078,-1481,-4356,-4064,-8997,-2859,69,268,-628
1826,1822,-1110,-4216,-4075,-8850,-2564,69,268,-628
1827,1635,-1022,-4063,-3884,-8630,-2262,69,268,-628
1828,1096,-1342,-4096,-4399,-7784,-1911,69,268,-628
1829,1047,-849,-4091,-4302,-6823,-1591,69,268,-628
1830,1052,-647,-4047,-3854,-6514,-1378,69,268,-628
1831,948,-703,-4320,-3655,-6285,-1126,69,268,-628
1832,1057,-608,-4495,-3722,-6244,-887,69,268,-628
1833,919,-144,-4755,-3669,-6233,-735,69,268,-628
1834,1004,18,-4705,-3769,-6091,-627,-103,347,-590
1835,1140,358,-4396,-3760,-5981,-604,-103,347,-590
1836,1058,573,-4199,-3603,-5734,-585,-103,347,-590
1837,905,616,-3990,-3497,-5365,-432,-103,347,-590
1838,936,664,-3887,-3418,-5040,-448,-103,347,-590
1839,1095,714,-3643,-3378,-5123,-447,-103,347,-590
1840,1137,788,-3335,-3303,-5290,-496,-103,347,-590
1841,940,736,-3026,-2981,-5298,-490,-103,347,-590
1842,694,608,-2956,-2462,-5098,-352,-103,347,-590
1843,394,399,-3031,-1926,-4778,-115,-103,347,-590
1844,99,66,-3292,-1506,-4337,161,-103,347,-590
1845,101,-192,-3284,-1305,-3988,489,-103,347,-590
1846,55,-214,-3285,-1285,-3647,869,-103,347,-590
1847,106,-154,-3280,-1186,-3299,1209,-103,347,-590
1848,17,-69,-3303,-881,-2982,1551,-103,347,-590
1849,-28,-11,-3346,-426,-2649,1887,-103,347,-590
1850,-64,-87,-3429,-26,-2359,2238,-186,403,-546
1851,-59,-180,-3661,216,-2098,2569,-186,403,-546
1852,17,-199,-3799,362,-1911,2862,-186,403,-546
1853,101,-353,-3883,419,-1737,3228,-186,403,-546
1854,44,-8,-3780,672,-1632,3510,-186,403,-546
1855,164,-129,-3813,491,-1623,3770,-186,403,-546
1856,175,206,-3687,400,-1454,4002,-186,403,-546
1857,179,183,-3322,122,-1066,4182,-186,403,-546
1858,353,855,-3163,119,-631,4240,-186,403,-546
1859,794,753,-2900,-21,-251,4345,-186,403,-546
1860,416,1327,-2847,42,284,4364,-186,403,-546
1861,467,1264,-2770,57,818,4399,-186,403,-546
1862,579,1294,-2720,-145,1261,4440,-186,403,-546
1863,480,2156,-2442,485,1912,4396,-186,403,-546
1864,672,1566,-2231,724,2391,4351,-186,403,-546
1865,375,1617,-2305,805,2945,4363,-186,403,-546
1866,780,1637,-1971,1107,3607,4384,-133,406,-557
1867,778,1784,-2126,985,4200,4319,-133,406,-557
1868,870,2288,-2223,1033,4666,4187,-133,406,-557
1869,1318,2601,-2270,1506,5079,3972,-133,406,-557
1870,1475,2794,-2354,1637,5314,3694,-133,406,-557
1871,1379,2937,-2486,1879,5386,3368,-133,406,-557
1872,1369,3073,-2337,2331,5631,3041,-133,406,-557
1873,1599,2904,-2071,2553,5876,2785,-133,406,-557
1874,1647,2923,-1802,2710,6234,2535,-133,406,-557
1875,1651,2842,-1636,2906,6571,2323,-133,406,-557
1876,1743,2778,-1504,2985,6948,2136,-133,406,-557
1877,1740,2692,-1515,3318,7397,1958,-133,406,-557
1878,1909,2581,-1763,3634,7708,1782,-133,406,-557
1879,2031,2460,-2179,4048,7887,1518,-133,406,-557
1880,2545,2524,-2839,4616,7714,1274,-133,406,-557
1881,2084,1992,-3925,4931,7379,964,21,338,-584
1882,2305,1730,-4620,4780,7031,731,21,338,-584
1883,2592,1515,-5087,4263,6294,495,21,338,-584
1884,2245,1556,-5319,3474,5955,308,21,338,-584
1885,2352,1691,-5069,2923,5673,107,21,338,-584
1886,2436,1900,-4692,2577,5381,-99,21,338,-584
1887,2440,2354,-4201,2631,5208,-317,21,338,-584
1888,2586,1943,-4078,2503,4898,-544,21,338,-584
1889,2435,1936,-4109,2237,4736,-689,21,338,-584
1890,2506,1979,-4027,2072,4535,-852,21,338,-584
1891,2513,1977,-3944,1987,4293,-1028,21,338,-584
1892,2274,1975,-4020,1895,4225,-1165,21,338,-584
1893,2313,1982,-3936,1816,4084,-1310,21,338,-584
1894,2264,1984,-3874,1636,4018,-1421,21,338,-584
1895,2306,2106,-3727,1575,3951,-1545,21,338,-584
1896,2297,2177,-3486,1577,3830,-1687,21,338,-584
1897,2340,2348,-3280,1734,3732,-1820,97,294,-593
1898,2411,2425,-3193,1993,3584,-2030,97,294,-593
1899,2434,2447,-3177,2311,3483,-2259,97,294,-593
1900,2513,2389,-3374,2611,3339,-2498,97,294,-593
1901,2576,2332,-3502,2941,3067,-2751,97,294,-593
1902,2682,2177,-3702,3147,2718,-3003,97,294,-593
1903,2742,1933,-4040,3349,2304,-3243,97,294,-593
1904,2762,1665,-4218,3423,1859,-3429,97,294,-593
1905,2759,1374,-4454,3370,1433,-3596,97,294,-593
1906,2790,1079,-4770,3239,938,-3739,97,294,-593
1907,2802,844,-5074,2987,423,-3840,97,294,-593
1908,2856,735,-5199,2667,-149,-3909,97,294,-593
1909,2780,558,-5266,2310,-729,-3957,97,294,-593
1910,2774,410,-5207,1877,-1292,-3942,97,294,-593
1911,2751,444,-5245,1437,-1886,-3956,97,294,-593
1912,2406,-102,-5493,771,-2121,-3821,93,267,-622
1913,2334,-18,-5415,458,-2593,-3701,93,267,-622
1914,2219,-50,-5374,286,-2984,-3554,93,267,-622
1915,2103,-253,-5463,101,-3475,-3370,93,267,-622
1916,2025,-169,-5565,-29,-3862,-3174,93,267,-622
1917,2032,-305,-5726,-108,-4337,-2988,93,267,-622
1918,1960,-356,-5706,-176,-4765,-2769,93,267,-622
1919,1915,-602,-5858,-608,-5072,-2508,93,267,-622
1920,1948,-544,-5874,-787,-5482,-2261,93,267,-622
1921,1856,-667,-5892,-974,-5725,-2045,93,267,-622
1922,2114,-1111,-5903,-1501,-6127,-1984,93,267,-622
1923,2349,-1231,-5724,-2307,-6911,-1778,93,267,-622
1924,2263,-995,-5598,-2925,-7481,-1549,93,267,-622
1925,2260,-753,-5442,-3389,-7793,-1426,93,267,-622
1926,2617,-607,-4824,-3849,-8097,-1396,93,267,-622
1927,2674,-431,-4493,-4483,-8366,-1423,93,267,-622
1928,2431,154,-4270,-4473,-8481,-1473,-42,311,-614
1929,1992,543,-3959,-3879,-8362,-1566,-42,311,-614
1930,1367,322,-3992,-3677,-7574,-1622,-42,311,-614
1931,1615,505,-3651,-3172,-7169,-1455,-42,311,-614
1932,1457,353,-5024,-3064,-6632,-1601,-42,311,-614
1933,1781,168,-4030,-3024,-6422,-1665,-42,311,-614
1934,1411,653,-4132,-2412,-6532,-1749,-42,311,-614
1935,735,422,-4452,-1810,-6012,-1693,-42,311,-614
1936,1053,52,-4508,-1457,-6171,-1610,-42,311,-614
1937,645,-211,-4364,-1387,-6049,-1396,-42,311,-614
1938,629,-411,-4152,-1620,-5885,-1128,-42,311,-614
1939,384,-322,-4186,-1686,-5672,-833,-42,311,-614
1940,412,-301,-4305,-1633,-5557,-562,-42,311,-614
1941,482,-376,-4421,-1744,-5699,-298,-42,311,-614
1942,470,-352,-4333,-1981,-5926,-68,-42,311,-614
1943,483,-355,-4180,-2191,-6082,171,-42,311,-614
1944,373,-189,-4001,-2345,-6087,393,-186,366,-572
1945,295,-49,-3855,-2332,-5928,594,-186,366,-572
1946,125,59,-3786,-2138,-5710,805,-186,366,-572
1947,96,-6,-3928,-1829,-5376,1039,-186,366,-572
1948,-1,-48,-4198,-1664,-5060,1283,-186,366,-572
1949,72,-12,-4369,-1669,-4803,1512,-186,366,-572
1950,144,91,-4345,-1723,-4657,1739,-186,366,-572
1951,118,264,-4295,-1755,-4510,1937,-186,366,-572
1952,169,406,-4079,-1723,-4323,2128,-186,366,-572
1953,87,562,-3753,-1649,-4018,2329,-186,366,-572
1954,140,730,-3388,-1443,-3614,2561,-186,366,-572
1955,29,767,-3260,-1136,-3110,2938,-186,366,-572
1956,-17,658,-3167,-958,-2590,3181,-186,366,-572
1957,-62,647,-3298,-823,-2230,3272,-186,366,-572
1958,-55,733,-3364,-620,-1849,3354,-186,366,-572
1959,-47,660,-3358,-384,-1346,3511,-228,406,-539
1960,80,914,-3194,-27,-952,3692,-228,406,-539
1961,-13,884,-3124,187,-510,3958,-228,406,-539
1962,-49,977,-3057,402,195,4334,-228,406,-539
1963,-108,962,-2947,671,865,4318,-228,406,-539
1964,365,739,-2824,646,1486,4360,-228,406,-539
1965,224,1156,-2660,696,2087,4435,-228,406,-539
1966,159,1188,-2415,939,2932,4560,-228,406,-539
1967,187,1159,-2211,958,3689,4692,-228,406,-539
1968,278,1401,-1870,1489,4322,4804,-228,406,-539
1969,463,1664,-1922,1207,4633,4742,-228,406,-539
1970,401,1749,-1909,1561,5442,4677,-228,406,-539
1971,815,2178,-2097,1601,6016,4530,-228,406,-539
1972,1279,2375,-1942,2106,6475,4359,-228,406,-539
1973,1562,2668,-2050,2627,6756,4077,-228,406,-539
1974,1594,2642,-2520,2840,6781,3771,-228,406,-539
1975,1420,3032,-3110,3377,6794,3391,-97,382,-565
1976,1803,2790,-3413,3469,6564,3039,-97,382,-565
1977,1748,2798,-3903,3547,6189,2566,-97,382,-565
1978,1946,2462,-4127,3645,5858,2232,-97,382,-565
1979,1770,2720,-4308,3503,5364,1853,-97,382,-565
1980,1658,2302,-4407,3147,4888,1531,-97,382,-565
1981,1862,2320,-4384,2701,4362,1259,-97,382,-565
1982,1618,2212,-4316,2152,3989,1050,-97,382,-565
1983,1717,2394,-4099,1911,3671,826,-97,382,-565
1984,1651,2368,-3870,1681,3386,621,-97,382,-565
1985,1669,2328,-3578,1441,3200,484,-97,382,-565
1986,1625,2319,-3400,1351,3077,303,-97,382,-565
1987,1469,2245,-3354,1385,3164,162,-97,382,-565
1988,1414,2100,-3273,1489,3305,37,-97,382,-565
1989,1382,2039,-3194,1582,3434,-48,-97,382,-565
1990,1421,2025,-3138,1639,3644,-136,-97,382,-565
1991,1460,2112,-3137,1602,3866,-250,-6,339,-590
1992,1792,2339,-3097,1641,3931,-390,-6,339,-590
1993,1704,2359,-3302,1713,3976,-588,-6,339,-590
1994,1881,2343,-3544,1897,3921,-803,-6,339,-590
1995,1992,2233,-3903,2100,3595,-1086,-6,339,-590
1996,1968,1937,-4200,2196,3225,-1298,-6,339,-590
1997,1921,1618,-4569,2079,2739,-1443,-6,339,-590
1998,1827,1364,-5047,1844,2282,-1546,-6,339,-590
1999,1782,1207,-5339,1472,1905,-1616,-6,339,-590
2000,1809,1105,-5595,994,1511,-1645,-6,339,-590
2001,1888,988,-5717,415,1061,-1665,-6,339,-590
2002,1980,979,-5543,-195,584,-1670,-6,339,-590
2003,1991,992,-5248,-691,173,-1653,-6,339,-590
2004,1948,1048,-4922,-1058,-91,-1655,-6,339,-590
2005,1930,1148,-4597,-1129,-271,-1642,-6,339,-590
2006,1894,1088,-4302,-981,-418,-1617,16,324,-603
2007,1730,934,-4067,-751,-451,-1563,16,324,-603
2008,1693,698,-3854,-551,-376,-1463,16,324,-603
2009,1683,506,-3633,-521,-306,-1307,16,324,-603
2010,1602,474,-3473,-496,-176,-1122,16,324,-603
2011,1471,435,-3506,-321,151,-946,16,324,-603
2012,1449,490,-3580,-69,481,-776,16,324,-603
2013,1516,594,-3723,217,674,-640,16,324,-603
2014,1540,551,-3974,502,710,-537,16,324,-603
2015,1544,466,-4249,708,655,-444,16,324,-603
2016,1528,381,-4487,804,586,-359,16,324,-603
2017,1491,263,-4604,770,511,-276,16,324,-603
2018,1470,190,-4627,627,408,-189,16,324,-603
2019,1496,134,-4671,440,286,-94,16,324,-603
2020,1511,194,-4560,205,135,-1,16,324,-603
2021,1533,267,-4412,55,59,69,16,324,-603
2022,1589,308,-4264,-33,41,122,14,314,-596
2023,1573,420,-4173,-83,34,169,14,314,-596
2024,1602,501,-4160,-121,64,177,14,314,-596
2025,1637,609,-4148,-148,100,162,14,314,-596
2026,1671,675,-4110,-166,149,117,14,314,-596
2027,1677,721,-4186,-184,198,68,14,314,-596
2028,1694,767,-4260,-195,222,0,14,314,-596
2029,1700,724,-4356,-223,203,-55,14,314,-596
2030,1719,711,-4384,-299,140,-102,14,314,-596
2031,1698,738,-4352,-406,76,-139,14,314,-596
2032,1685,790,-4241,-450,13,-177,14,314,-596
2033,1676,795,-4140,-449,-11,-208,14,314,-596
2034,1686,794,-4055,-408,-21,-230,14,314,-596
2035,1699,787,-3975,-441,-17,-251,14,314,-596
2036,1692,820,-3868,-464,17,-262,14,314,-596
2037,1645,833,-3716,-453,107,-279,14,314,-596
2038,1623,807,-3709,-375,194,-274,14,314,-596
2039,1605,823,-3708,-247,260,-268,9,330,-597
2040,1539,776,-3788,-116,284,-249,9,330,-597
2041,1533,744,-3831,-40,277,-224,9,330,-597
2042,1500,654,-3866,-23,246,-192,9,330,-597
2043,1524,593,-3954,-82,184,-150,9,330,-597
2044,1500,615,-4049,-164,133,-81,9,330,-597
2045,1497,681,-4047,-239,62,-32,9,330,-597
2046,1527,686,-4036,-327,-3,8,9,330,-597
2047,1519,778,-3985,-363,-65,34,9,330,-597
2048,1513,859,-3931,-388,-135,42,9,330,-597
2049,1459,899,-3888,-410,-162,58,9,330,-597
2050,1517,949,-3806,-344,-176,70,9,330,-597
2051,1490,1015,-3694,-276,-169,73,9,330,-597
2052,1462,988,-3660,-244,-136,65,9,330,-597
2053,1543,982,-3690,-271,-160,56,9,330,-597
2054,1516,1001,-3585,-335,-149,40,9,330,-597
2055,1528,1058,-3497,-314,-70,55,14,329,-602
2056,1557,1158,-3442,-223,3,55,14,329,-602
2057,1538,1169,-3528,-100,64,53,14,329,-602
2058,1524,1142,-3568,14,85,46,14,329,-602
2059,1569,1152,-3608,98,121,33,14,329,-602
2060,1556,1134,-3676,151,162,16,14,329,-602
2061,1568,1110,-3750,216,197,14,14,329,-602
2062,1608,1099,-3891,268,214,1,14,329,-602
2063,1610,1023,-4045,291,161,-5,14,329,-602
2064,1655,946,-4068,241,65,-9,14,329,-602
2065,1715,906,-4116,106,-40,0,14,329,-602
2066,1648,856,-4089,-58,-74,22,14,329,-602
2067,1652,928,-4009,-201,-79,50,14,329,-602
2068,1637,984,-3915,-277,-60,61,14,329,-602
2069,1622,1073,-3839,-277,-18,62,14,329,-602
2070,1652,1101,-3796,-205,11,60,14,329,-602
2071,1647,1143,-3850,-121,48,44,20,320,-595
2072,1637,1100,-3958,-47,74,29,20,320,-595
2073,1635,1104,-4033,-3,68,6,20,320,-595
2074,1668,1047,-4194,3,11,-24,20,320,-595
2075,1692,977,-4263,-47,-96,-29,20,320,-595
2076,1693,944,-4262,-130,-186,-33,20,320,-595
2077,1652,915,-4185,-209,-211,-12,20,320,-595
2078,1645,959,-4095,-275,-217,0,20,320,-595
2079,1648,1009,-4005,-330,-194,7,20,320,-595
2080,1637,1046,-3968,-371,-196,4,20,320,-595
2081,1640,1093,-3947,-374,-194,1,20,320,-595
2082,1627,1094,-3935,-356,-185,-17,20,320,-595
2083,1652,1114,-3924,-311,-181,-23,20,320,-595
2084,1693,1096,-3909,-302,-182,-48,20,320,-595
2085,1650,1089,-3894,-342,-193,-65,20,320,-595
2086,1670,1079,-3751,-391,-146,-63,20,320,-595
2087,1635,1118,-3668,-372,-51,-76,20,320,-595
2088,1609,1173,-3680,-279,45,-94,11,334,-593
2089,1626,1121,-3653,-164,123,-116,11,334,-593
2090,1618,1118,-3719,-66,151,-113,11,334,-593
2091,1612,1059,-3863,-11,159,-124,11,334,-593
2092,1612,1007,-3896,18,144,-118,11,334,-593
2093,1621,982,-4011,45,111,-110,11,334,-593
2094,1587,939,-4087,19,37,-100,11,334,-593
2095,1636,889,-4059,-71,-34,-92,11,334,-593
2096,1638,893,-4046,-176,-72,-68,11,334,-593
2097,1608,877,-3930,-257,-79,-49,11,334,-593
2098,1628,945,-3863,-284,-51,-40,11,334,-593
2099,1600,968,-3806,-284,-18,-26,11,334,-593
2100,1579,1000,-3793,-258,-2,-29,11,334,-593
2101,1563,1061,-3772,-225,19,-36,11,334,-593
2102,1551,1066,-3765,-194,45,-49,11,334,-593
2103,1521,1030,-3815,-175,58,-55,11,334,-593
2104,1556,1038,-3792,-134,52,-57,14,335,-596
2105,1537,982,-3871,-104,20,-67,14,335,-596
2106,1561,989,-3856,-130,-19,-54,14,335,-596
2107,1574,946,-3839,-175,-34,-55,14,335,-596
2108,1586,1016,-3796,-217,-29,-50,14,335,-596
2109,1563,1060,-3691,-216,26,-44,14,335,-596
2110,1576,1031,-3680,-170,68,-49,14,335,-596
2111,1561,1031,-3713,-104,106,-58,14,335,-596
2112,1598,1027,-3757,-49,127,-56,14,335,-596
2113,1575,1026,-3809,-19,150,-59,14,335,-596
2114,1594,984,-3885,10,161,-59,14,335,-596
2115,1569,975,-3879,56,153,-59,14,335,-596
2116,1575,928,-3995,118,106,-58,14,335,-596
2117,1596,914,-4058,127,33,-45,14,335,-596
2118,1621,837,-3991,84,-23,-27,14,335,-596
2119,1619,814,-3986,-9,-56,-1,14,335,-596
2120,1586,860,-3905,-76,-21,23,19,328,-594
2121,1578,934,-3838,-106,22,25,19,328,-594
2122,1610,1010,-3846,-92,45,24,19,328,-594
2123,1612,981,-3802,-48,54,20,19,328,-594
2124,1592,976,-3844,5,62,11,19,328,-594
2125,1586,1013,-3871,20,75,5,19,328,-594
2126,1523,940,-3920,41,96,-1,19,328,-594
2127,1540,921,-3921,28,96,15,19,328,-594
2128,1556,953,-3893,29,88,13,19,328,-594
2129,1613,964,-3886,-1,73,15,19,328,-594
2130,1628,1016,-3872,-44,75,1,19,328,-594
2131,1638,1066,-3826,-41,101,-22,19,328,-594
2132,1641,1046,-3859,-37,127,-40,19,328,-594
2133,1650,1014,-3857,-2,146,-56,19,328,-594
2134,1660,1003,-3884,18,161,-46,19,328,-594
2135,1637,956,-3874,37,158,-39,19,328,-594
2136,1658,943,-3948,50,171,-32,19,328,-594
2137,1647,926,-3942,34,157,-22,12,331,-597
2138,1615,956,-3944,30,147,-5,12,331,-597
2139,1632,968,-4011,36,124,2,12,331,-597
2140,1624,946,-3986,46,100,18,12,331,-597
2141,1635,951,-3974,46,40,30,12,331,-597
2142,1653,964,-3953,28,9,42,12,331,-597
2143,1669,996,-3920,3,-9,46,12,331,-597
2144,1641,1040,-3935,-17,-12,47,12,331,-597
2145,1642,1072,-3864,-17,-1,39,12,331,-597
2146,1640,1051,-3851,13,25,38,12,331,-597
2147,1673,1085,-3878,52,42,36,12,331,-597
2148,1616,1032,-3837,90,65,27,12,331,-597
2149,1623,1046,-3903,118,79,23,12,331,-597
2150,1598,997,-3905,147,97,26,12,331,-597
2151,1604,996,-3905,163,106,33,12,331,-597
2152,1607,973,-3957,165,118,48,12,331,-597
2153,1621,1004,-3960,161,122,53,16,329,-602
2154,1608,1052,-3920,121,114,46,16,329,-602
2155,1686,1000,-3903,89,105,33,16,329,-602
2156,1728,1021,-3823,18,67,21,16,329,-602
2157,1678,1002,-3789,-20,70,15,16,329,-602
2158,1663,1044,-3793,-26,90,16,16,329,-602
2159,1640,1071,-3827,-4,142,17,16,329,-602
2160,1654,1057,-3837,20,169,12,16,329,-602
2161,1669,1047,-3855,54,170,8,16,329,-602
2162,1652,1049,-3970,80,159,8,16,329,-602
2163,1663,1033,-4054,115,132,-9,16,329,-602
2164,1700,998,-4127,127,82,-12,16,329,-602
2165,1696,984,-4148,96,19,-17,16,329,-602
2166,1692,942,-4095,22,-37,-9,16,329,-602
2167,1685,993,-4045,-65,-47,0,16,329,-602
2168,1685,1025,-4003,-120,-47,-5,16,329,-602
2169,1678,1082,-3919,-121,-24,-25,16,329,-602
2170,1680,1024,-3847,-121,-18,-27,16,329,-602
2171,1693,1018,-3839,-96,-13,-29,16,329,-602
2172,1630,1004,-3829,-85,16,-35,16,329,-602
2173,1603,970,-3875,-63,47,-26,16,329,-602
2174,1598,974,-3931,-41,52,-15,16,329,-602
2175,1630,969,-3896,-40,56,-9,16,329,-602
2176,1621,936,-3914,-36,40,5,16,329,-602
2177,1630,973,-3891,-41,34,12,16,329,-602
2178,1646,979,-3864,-58,41,12,16,329,-602
2179,1630,1002,-3853,-66,40,14,16,329,-602
2180,1621,1017,-3837,-47,65,15,16,329,-602
2181,1596,1015,-3816,-26,71,13,16,329,-602
2182,1629,998,-3810,-4,96,12,16,329,-602
2183,1642,1010,-3841,6,119,5,16,329,-602
2184,1619,993,-3810,27,139,5,16,329,-602
2185,1635,997,-3902,67,150,-7,16,329,-602
2186,1675,985,-3932,110,141,-12,16,331,-599
2187,1646,945,-3968,115,105,-7,16,331,-599
2188,1696,1003,-3968,97,68,-13,16,331,-599
2189,1694,920,-3981,59,23,-31,16,331,-599
2190,1699,896,-3926,5,-2,-27,16,331,-599
2191,1689,878,-3946,-33,-29,-29,16,331,-599
2192,1719,831,-3991,-83,-59,-21,16,331,-599
2193,1682,867,-3967,-146,-80,4,16,331,-599
2194,1669,875,-3971,-203,-96,16,16,331,-599
2195,1663,918,-3977,-246,-104,15,16,331,-599
2196,1672,934,-3936,-265,-109,20,16,331,-599
2197,1648,956,-3942,-268,-120,20,16,331,-599
2198,1688,953,-3923,-252,-130,15,16,331,-599
2199,1624,961,-3930,-258,-134,6,16,331,-599
2200,1619,946,-3904,-262,-114,4,16,331,-599
2201,1659,949,-3854,-284,-90,-4,16,331,-599
2202,1684,1006,-3785,-288,-52,-10,19,329,-604
2203,1681,1011,-3699,-259,-20,-19,19,329,-604
2204,1672,1016,-3724,-209,18,-28,19,329,-604
2205,1621,1042,-3716,-136,60,-30,19,329,-604
2206,1588,983,-3722,-78,97,-31,19,329,-604
2207,1610,1004,-3768,-37,109,-30,19,329,-604
2208,1607,938,-3799,0,122,-26,19,329,-604
2209,1625,936,-3830,25,117,-10,19,329,-604
2210,1637,897,-3850,14,128,-1,19,329,-604
2211,1628,929,-3880,0,117,11,19,329,-604
2212,1623,937,-3838,-10,132,22,19,329,-604
2213,1616,959,-3836,-22,146,33,19,329,-604
2214,1635,984,-3856,14,155,24,19,329,-604
2215,1639,981,-3783,53,165,24,19,329,-604
2216,1648,988,-3807,92,171,23,19,329,-604
2217,1662,950,-3877,107,185,17,19,329,-604
2218,1647,945,-3939,138,179,21,19,329,-604
2219,1653,931,-4030,168,156,13,22,319,-596
2220,1665,877,-4057,170,106,22,22,319,-596
2221,1665,871,-4044,134,56,39,22,319,-596
2222,1702,887,-3968,63,40,49,22,319,-596
2223,1685,917,-3922,-10,51,58,22,319,-596
2224,1658,954,-3861,-60,81,50,22,319,-596
2225,1674,961,-3798,-66,107,40,22,319,-596
2226,1669,986,-3803,-34,141,39,22,319,-596
2227,1650,984,-3856,7,150,40,22,319,-596
2228,1658,936,-3879,40,164,41,22,319,-596
2229,1624,943,-3916,60,159,46,22,319,-596
2230,1648,924,-3918,54,155,59,22,319,-596
2231,1670,948,-3917,23,160,52,22,319,-596
2232,1678,982,-3902,-7,157,40,22,319,-596
2233,1708,1021,-3833,-32,180,29,22,319,-596
2234,1742,1072,-3782,-24,205,21,22,319,-596
2235,1698,1066,-3796,18,234,5,20,328,-599
2236,1699,1053,-3808,74,256,-1,20,328,-599
2237,1720,1060,-3799,118,269,-14,20,328,-599
2238,1699,1020,-3841,137,269,-20,20,328,-599
2239,1669,982,-3902,138,270,-26,20,328,-599
2240,1669,982,-3934,132,253,-28,20,328,-599
2241,1693,1021,-3966,108,222,-30,20,328,-599
2242,1684,978,-4001,109,172,-34,20,328,-599
2243,1702,994,-4050,93,108,-42,20,328,-599
2244,1728,969,-4019,77,54,-53,20,328,-599
2245,1737,948,-3990,25,16,-43,20,328,-599
2246,1719,948,-3969,-29,-4,-36,20,328,-599
2247,1701,969,-3876,-77,-5,-26,20,328,-599
2248,1705,973,-3848,-89,-12,-16,20,328,-599
2249,1660,1019,-3806,-80,-10,-11,20,328,-599
2250,1668,1006,-3798,-45,2,-6,20,328,-599
2251,1664,1029,-3811,-10,19,-7,20,328,-599
2252,1666,1008,-3838,12,41,-11,25,322,-602
2253,1691,987,-3811,-19,59,-14,25,322,-602
2254,1704,958,-3802,-45,88,-8,25,322,-602
2255,1687,969,-3819,-39,127,-2,25,322,-602
2256,1690,990,-3816,5,141,0,25,322,-602
2257,1719,986,-3827,48,129,3,25,322,-602
2258,1691,956,-3877,62,111,7,25,322,-602
2259,1724,942,-3899,41,109,6,25,322,-602
2260,1730,948,-3881,11,110,1,25,322,-602
2261,1692,937,-3917,-13,110,-10,25,322,-602
2262,1692,937,-3884,-33,105,-6,25,322,-602
2263,1683,932,-3853,-45,113,-18,25,322,-602
2264,1702,942,-3797,-37,124,-21,25,322,-602
2265,1716,968,-3823,-25,141,-28,25,322,-602
2266,1708,931,-3888,-11,152,-30,25,322,-602
2267,1739,946,-3892,-20,136,-21,25,322,-602
2268,1746,960,-3922,-17,146,-32,33,314,-601
2269,1733,929,-3924,-11,140,-35,33,314,-601
2270,1736,912,-3936,0,109,-31,33,314,-601
2271,1737,921,-3953,11,85,-33,33,314,-601
2272,1741,883,-3921,14,61,-33,33,314,-601
2273,1750,924,-3930,10,46,-34,33,314,-601
2274,1715,875,-3922,0,34,-30,33,314,-601
2275,1727,899,-3914,-11,25,-19,33,314,-601
2276,1703,930,-3904,-4,26,-22,33,314,-601
2277,1678,866,-3813,-30,15,-15,33,314,-601
2278,1712,876,-3792,-52,28,-8,33,314,-601
2279,1682,893,-3796,-43,57,0,33,314,-601
2280,1664,900,-3812,-33,81,2,33,314,-601
2281,1688,916,-3772,-9,102,4,33,314,-601
2282,1698,917,-3810,21,106,-1,33,314,-601
2283,1686,921,-3843,32,104,5,33,314,-601
2284,1707,905,-3857,44,111,-6,33,314,-601
2285,1716,889,-3884,35,118,-8,26,323,-595
2286,1722,897,-3859,29,123,-5,26,323,-595
2287,1721,905,-3882,54,115,-7,26,323,-595
2288,1705,894,-3910,68,96,-18,26,323,-595
2289,1734,868,-3990,60,70,-23,26,323,-595
2290,1760,843,-3919,25,44,-17,26,323,-595
2291,1750,865,-3967,-35,46,-15,26,323,-595
2292,1723,834,-3954,-64,47,-9,26,323,-595
2293,1721,862,-3965,-81,44,-7,26,323,-595
2294,1707,863,-3869,-76,37,-8,26,323,-595
2295,1726,859,-3939,-57,33,1,26,323,-595
2296,1703,856,-3873,-40,32,0,26,323,-595
2297,1688,878,-3915,-37,43,9,26,323,-595
2298,1715,868,-3884,-57,38,7,26,323,-595
2299,1693,883,-3901,-77,23,4,26,323,-595
2300,1745,883,-3826,-70,22,12,26,323,-595
2301,1733,927,-3841,-43,31,15,32,319,-607
2302,1679,898,-3851,-26,34,16,32,319,-607
2303,1708,935,-3849,-3,46,18,32,319,-607
2304,1691,936,-3776,4,53,17,32,319,-607
2305,1706,934,-3854,13,62,20,32,319,-607
2306,1715,908,-3870,16,70,22,32,319,-607
2307,1720,911,-3874,30,69,17,32,319,-607
2308,1698,924,-3869,38,62,20,32,319,-607
2309,1732,947,-3917,19,39,18,32,319,-607
2310,1764,939,-3921,-9,30,16,32,319,-607
2311,1772,948,-3914,-61,31,16,32,319,-607
2312,1777,981,-3877,-95,49,14,32,319,-607
2313,1738,996,-3846,-110,69,6,32,319,-607
2314,1760,1001,-3832,-77,83,-12,32,319,-607
2315,1741,1022,-3881,-60,75,-11,32,319,-607
2316,1735,983,-3871,-35,72,-13,32,319,-607
2317,1730,970,-3844,-28,81,-16,32,319,-607
2318,1745,935,-3910,-7,95,-9,35,310,-599
2319,1703,930,-3930,14,68,-2,35,310,-599
2320,1731,904,-3969,28,43,3,35,310,-599
2321,1741,935,-3961,-5,6,16,35,310,-599
2322,1781,965,-3947,-47,-16,19,35,310,-599
2323,1770,993,-3877,-91,-8,19,35,310,-599
2324,1771,999,-3871,-98,11,11,35,310,-599
2325,1757,986,-3818,-78,30,0,35,310,-599
2326,1746,990,-3840,-39,32,-4,35,310,-599
2327,1717,949,-3866,-27,49,-8,35,310,-599
2328,1739,953,-3846,-17,60,-8,35,310,-599
2329,1744,936,-3907,-14,68,-9,35,310,-599
2330,1713,951,-3882,-28,63,-18,35,310,-599
2331,1734,930,-3924,-6,61,-31,35,310,-599
2332,1727,889,-3968,12,43,-30,35,310,-599
2333,1742,907,-3918,-24,11,-33,35,310,-599
2334,1740,917,-3887,-67,7,-39,27,320,-603
2335,1757,901,-3830,-119,11,-39,27,320,-603
2336,1758,924,-3828,-142,29,-49,27,320,-603
2337,1708,880,-3783,-137,34,-45,27,320,-603
2338,1734,889,-3776,-126,31,-36,27,320,-603
2339,1705,882,-3796,-119,38,-23,27,320,-603
2340,1703,922,-3795,-126,50,-26,27,320,-603
2341,1730,911,-3860,-111,66,-16,27,320,-603
2342,1710,910,-3858,-91,57,-8,27,320,-603
2343,1701,931,-3844,-51,51,-14,27,320,-603
2344,1727,917,-3889,-22,32,-8,27,320,-603
2345,1728,902,-3884,-18,27,-6,27,320,-603
2346,1751,924,-3818,-30,31,-6,27,320,-603
2347,1746,927,-3843,-44,33,-18,27,320,-603
2348,1737,946,-3765,-41,64,-24,27,320,-603
2349,1732,948,-3783,-17,87,-38,27,320,-603
2350,1707,898,-3759,18,92,-38,27,320,-603
2351,1724,852,-3807,30,108,-30,35,318,-607
2352,1688,854,-3809,44,110,-22,35,318,-607
2353,1701,868,-3876,56,109,-16,35,318,-607
2354,1728,853,-3954,78,93,-3,35,318,-607
2355,1747,845,-3955,102,58,1,35,318,-607
2356,1750,807,-3976,97,20,21,35,318,-607
2357,1758,821,-3978,53,-4,29,35,318,-607
2358,1765,857,-3923,3,0,35,35,318,-607
2359,1764,866,-3887,-40,8,33,35,318,-607
2360,1770,881,-3849,-61,9,29,35,318,-607
2361,1762,873,-3879,-63,10,23,35,318,-607
2362,1743,872,-3854,-55,8,17,35,318,-607
2363,1751,868,-3861,-60,31,24,35,318,-607
2364,1738,873,-3881,-60,32,22,35,318,-607
2365,1729,846,-3900,-51,35,24,35,318,-607
2366,1771,867,-3894,-41,29,28,35,318,-607
2367,1740,864,-3874,-38,19,33,35,309,-607
2368,1759,918,-3851,-54,34,33,37,309,-600
2369,1771,925,-3861,-68,27,21,37,309,-600
2370,1774,925,-3832,-69,45,20,37,309,-600
2371,1787,939,-3813,-59,55,13,37,309,-600
2372,1768,944,-3866,-33,65,7,37,309,-600
2373,1752,920,-3873,-19,67,10,37,309,-600
2374,1758,909,-3853,-19,66,10,37,309,-600
2375,1737,911,-3879,-28,64,9,37,309,-600
2376,1733,920,-3876,-27,63,3,37,309,-600
2377,1752,952,-3861,-17,71,6,37,309,-600
2378,1768,946,-3834,-17,73,11,37,309,-600
2379,1753,942,-3818,-10,93,-4,37,309,-600
2380,1762,906,-3866,-23,87,-12,37,309,-600
2381,1743,928,-3858,-51,85,-7,37,309,-600
2382,1762,908,-3871,-82,89,-2,37,309,-600
2383,1756,922,-3902,-104,100,-1,37,309,-600
2384,1761,957,-3842,-121,97,-2,30,321,-603
2385,1759,939,-3921,-98,103,1,30,321,-603
2386,1788,974,-3869,-65,80,-10,30,321,-603
2387,1778,964,-3908,-26,63,-8,30,321,-603
2388,1785,949,-3903,-15,41,-9,30,321,-603
2389,1746,933,-3845,-36,34,-8,30,321,-603
2390,1749,936,-3857,-49,47,3,30,321,-603
2391,1754,947,-3842,-57,59,-2,30,321,-603
2392,1737,956,-3823,-40,61,-7,30,321,-603
2393,1741,953,-3819,-38,59,-7,30,321,-603
2394,1744,929,-3845,-32,72,-7,30,321,-603
2395,1749,916,-3818,-44,74,-14,30,321,-603
2396,1722,926,-3826,-45,82,-10,30,321,-603
2397,1723,900,-3844,-48,86,-8,30,321,-603
2398,1716,917,-3797,-39,84,-13,30,321,-603
2399,1734,902,-3830,-33,89,-16,30,321,-603
2400,1737,896,-3830,-22,74,-13,30,321,-603
2401,1765,919,-3852,-18,66,-17,38,318,-606
2402,1757,891,-3862,-20,57,-17,38,318,-606
2403,1766,865,-3890,-17,62,-8,38,318,-606
2404,1750,885,-3848,-18,56,-5,38,318,-606
2405,1750,893,-3828,-6,53,-1,38,318,-606
2406,1775,899,-3844,8,46,-3,38,318,-606
2407,1760,868,-3834,32,47,-9,38,318,-606
2408,1747,893,-3806,48,49,-2,38,318,-606
2409,1760,873,-3824,69,45,-5,38,318,-606
2410,1716,850,-3853,68,54,-2,38,318,-606
2411,1737,840,-3876,71,52,0,38,318,-606
2412,1733,875,-3828,69,51,3,38,318,-606
2413,1739,852,-3790,63,64,1,38,318,-606
2414,1747,824,-3815,65,57,6,38,318,-606
2415,1733,835,-3825,59,50,9,38,318,-606
2416,1746,821,-3887,54,42,10,38,318,-606
2417,1764,811,-3888,34,35,17,41,305,-601
2418,1761,846,-3881,12,37,22,41,305,-601
2419,1780,851,-3838,4,45,31,41,305,-601
2420,1762,858,-3827,-1,54,25,41,305,-601
2421,1758,860,-3869,7,58,25,41,305,-601
2422,1780,867,-3900,17,58,24,41,305,-601
2423,1785,868,-3894,25,64,31,41,305,-601
2424,1783,841,-3925,16,65,32,41,305,-601
2425,1767,853,-3914,-11,58,32,41,305,-601
2426,1796,831,-3889,-26,71,27,41,305,-601
2427,1795,868,-3881,-37,72,16,41,305,-601
2428,1783,834,-3915,-33,85,20,41,305,-601
2429,1800,832,-3915,-25,76,9,41,305,-601
2430,1805,844,-3962,-30,58,19,41,305,-601
2431,1814,863,-3945,-40,48,15,41,305,-601
2432,1781,861,-3927,-52,43,12,41,305,-601
2433,1786,829,-3893,-66,42,11,41,305,-601
2434,1798,862,-3936,-60,38,10,35,315,-604
2435,1804,880,-3861,-39,45,13,35,315,-604
2436,1806,887,-3864,-17,41,16,35,315,-604
2437,1776,862,-3865,-9,45,18,35,315,-604
2438,1790,863,-3853,-4,51,10,35,315,-604
2439,1800,877,-3846,3,56,0,35,315,-604
2440,1781,892,-3865,8,68,6,35,315,-604
2441,1799,859,-3868,17,69,11,35,315,-604
2442,1794,868,-3854,32,74,8,35,315,-604
2443,1801,876,-3878,41,81,-1,35,315,-604
2444,1798,917,-3858,45,119,-11,35,315,-604
2445,1802,857,-3805,29,144,-14,35,315,-604
2446,1816,876,-3831,7,107,-17,35,315,-604
2447,1776,853,-3813,0,106,-9,35,315,-604
2448,1799,914,-3829,9,112,-11,35,315,-604
2449,1766,887,-3869,30,125,-16,35,315,-604
2450,1779,857,-3877,29,129,-19,35,307,-610
2451,1806,845,-3887,27,111,-17,41,307,-610
2452,1784,814,-3885,25,88,-23,41,307,-610
2453,1786,809,-3864,5,73,-22,41,307,-610
2454,1792,820,-3891,-17,51,-4,41,307,-610
2455,1798,831,-3895,-40,39,-6,41,307,-610
2456,1756,822,-3844,-48,43,1,41,307,-610
2457,1791,843,-3866,-45,40,5,41,307,-610
2458,1761,856,-3831,-28,59,-2,41,307,-610
2459,1802,859,-3848,-19,60,-7,41,307,-610
2460,1788,851,-3827,-14,74,-10,41,307,-610
2461,1803,882,-3852,-3,72,-16,41,307,-610
2462,1770,825,-3859,-4,70,-21,41,307,-610
2463,1791,822,-3852,-10,68,-8,41,307,-610
2464,1795,834,-3874,-37,74,-13,41,307,-610
2465,1771,888,-3854,-46,80,-10,41,307,-610
2466,1785,889,-3819,-56,89,-24,41,307,-610
2467,1774,868,-3864,-34,96,-18,45,300,-605
2468,1781,855,-3860,-14,97,-22,45,300,-605
2469,1805,883,-3872,-2,92,-14,45,300,-605
2470,1809,879,-3919,25,72,-13,45,300,-605
2471,1820,850,-3956,45,39,-15,45,300,-605
2472,1833,859,-3980,47,-6,-11,45,300,-605
2473,1834,852,-3951,21,-43,-16,45,300,-605
2474,1788,852,-3957,-18,-55,-16,45,300,-605
2475,1789,865,-3914,-36,-40,-7,45,300,-605
2476,1768,854,-3837,-38,-36,-10,45,300,-605
2477,1775,856,-3821,-33,-21,-12,45,300,-605
2478,1758,850,-3770,-34,-5,-7,45,300,-605
2479,1762,857,-3750,-43,14,1,45,300,-605
2480,1752,832,-3766,-44,19,13,45,300,-605
2481,1746,826,-3756,-51,33,14,45,300,-605
2482,1707,870,-3768,-29,42,18,45,300,-605
2483,1768,880,-3813,-25,55,31,45,300,-605
2484,1787,854,-3834,-9,61,27,35,310,-604
2485,1819,860,-3834,-5,58,22,35,310,-604
2486,1834,886,-3853,-21,62,21,35,310,-604
2487,1820,886,-3878,-44,57,16,35,310,-604
2488,1839,907,-3882,-47,46,6,35,310,-604
2489,1852,889,-3903,-46,29,-3,35,310,-604
2490,1849,897,-3904,-53,25,-13,35,310,-604
2491,1831,908,-3924,-55,6,-10,35,310,-604
2492,1803,890,-3893,-55,-3,-13,35,310,-604
2493,1796,880,-3826,-60,4,-19,35,310,-604
2494,1843,919,-3880,-59,-1,-16,35,310,-604
2495,1814,855,-3886,-50,-13,-13,35,310,-604
2496,1815,829,-3907,-51,-15,-16,35,310,-604
2497,1818,885,-3892,-61,-30,-10,35,310,-604
2498,1774,824,-3852,-71,-33,-6,35,310,-604
2499,1776,865,-3818,-69,-28,-6,35,310,-604
2500,1786,860,-3816,-71,-24,-2,40,306,-610
