,ax,ay,az,gx,gy,gz,cx,cy,cz
1,1112,1038,-4105,-108,115,84,-68,319,-600
2,1083,1066,-4137,-113,94,72,-68,319,-600
3,1096,1036,-4074,-110,34,52,-68,319,-600
4,1071,1024,-4046,-113,-20,46,-68,319,-600
5,1062,1060,-4029,-113,-17,42,-68,319,-600
6,1052,1050,-4008,-101,17,38,-68,319,-600
7,1043,1050,-3968,-101,63,26,-68,319,-600
8,1067,1065,-4014,-81,96,16,-68,319,-600
9,1079,1086,-4016,-26,141,8,-68,319,-600
10,1070,1090,-4092,27,166,-7,-68,319,-600
11,1090,1021,-4080,74,171,-30,-68,319,-600
12,1134,1015,-4093,53,134,-41,-68,319,-600
13,1120,1001,-4101,31,125,-42,-67,315,-595
14,1098,998,-4085,17,137,-48,-67,315,-595
15,1083,1007,-4054,17,149,-42,-67,315,-595
16,1076,998,-4066,22,154,-47,-67,315,-595
17,1102,1010,-4070,18,152,-40,-67,315,-595
18,1063,976,-4096,19,154,-28,-67,315,-595
19,1099,922,-4090,8,124,-29,-67,315,-595
20,1128,915,-4131,-45,67,-19,-67,315,-595
21,1103,935,-4118,-97,29,2,-67,315,-595
22,1095,980,-4137,-116,16,9,-67,315,-595
23,1092,985,-4132,-125,17,16,-67,315,-595
24,1114,1011,-4098,-121,14,11,-67,315,-595
25,1108,987,-4129,-127,1,-3,-67,315,-595
26,1127,1013,-4133,-109,-18,-7,-67,315,-595
27,1110,1014,-4154,-93,-31,-9,-67,315,-595
28,1101,983,-4151,-78,-30,-12,-67,315,-595
29,1113,995,-4166,-78,-36,-10,-67,315,-595
30,1096,979,-4177,-83,-21,2,-69,326,-598
31,1073,993,-4132,-92,3,7,-69,326,-598
32,1062,1020,-4109,-84,23,0,-69,326,-598
33,1079,1011,-4162,-82,50,-21,-69,326,-598
34,1091,1005,-4125,-95,72,-31,-69,326,-598
35,1095,1028,-4154,-104,100,-43,-69,326,-598
36,1083,1010,-4130,-86,110,-59,-69,326,-598
37,1090,1009,-4180,-54,132,-63,-69,326,-598
38,1057,991,-4144,-46,156,-64,-69,326,-598
39,1092,973,-4127,-44,200,-77,-69,326,-598
40,1122,982,-4128,-48,191,-81,-69,326,-598
41,1146,978,-4134,-79,141,-73,-69,326,-598
42,1129,979,-4107,-66,100,-54,-69,326,-598
43,1125,1002,-4081,-39,55,-43,-69,326,-598
44,1106,1006,-4074,-18,53,-45,-69,326,-598
45,1118,973,-4110,-28,69,-46,-69,326,-598
46,1086,1019,-4043,-39,90,-52,-63,318,-602
47,1118,1006,-4031,-25,109,-54,-63,318,-602
48,1083,995,-4016,-14,106,-50,-63,318,-602
49,1078,954,-4011,-10,121,-44,-63,318,-602
50,1081,945,-4025,-20,119,-44,-63,318,-602
51,1082,973,-4058,-35,124,-38,-63,318,-602
52,1087,979,-4098,-60,143,-33,-63,318,-602
53,1107,1023,-4098,-64,165,-28,-63,318,-602
54,1104,1004,-4066,-47,201,-28,-63,318,-602
55,1098,1010,-4066,-44,223,-33,-63,318,-602
56,1098,1056,-4058,-24,226,-41,-63,318,-602
57,1110,1031,-4040,-1,198,-42,-63,318,-602
58,1108,1006,-3983,3,136,-41,-63,318,-602
59,1119,971,-3941,5,99,-38,-63,318,-602
60,1110,1002,-3893,2,116,-18,-63,318,-602
61,1062,1014,-3925,3,160,-6,-63,318,-602
62,1104,980,-3987,-7,185,-6,-62,316,-597
63,1112,990,-3946,-9,203,0,-62,316,-597
64,1098,987,-4052,-11,212,-1,-62,316,-597
65,1098,1002,-4064,-29,231,3,-62,316,-597
66,1063,938,-4010,-78,295,-14,-62,316,-597
67,938,967,-3797,-152,508,-29,-62,316,-597
68,1059,1049,-3871,6,641,-8,-62,316,-597
69,1190,998,-4043,134,552,13,-62,316,-597
70,1236,1028,-4219,234,448,14,-62,316,-597
71,1255,1045,-4404,232,328,-14,-62,316,-597
72,1216,985,-4383,111,295,-40,-62,316,-597
73,1237,1007,-4348,21,255,-58,-62,316,-597
74,1238,1004,-4253,-15,236,-63,-62,316,-597
75,1204,1001,-4194,8,208,-64,-62,316,-597
76,1167,979,-4190,29,207,-70,-62,316,-597
77,1111,960,-4112,11,238,-79,-62,316,-597
78,1113,927,-4024,-38,277,-77,-62,316,-597
79,1097,957,-3931,-59,341,-66,-59,320,-602
80,1101,964,-3935,-27,364,-49,-59,320,-602
81,1143,1017,-3976,29,388,-37,-59,320,-602
82,1150,1019,-3998,76,406,-47,-59,320,-602
83,1193,1054,-4081,81,408,-62,-59,320,-602
84,1208,1042,-4163,68,387,-81,-59,320,-602
85,1218,1046,-4211,69,364,-103,-59,320,-602
86,1247,1013,-4244,81,290,-117,-59,320,-602
87,1232,982,-4218,71,199,-121,-59,320,-602
88,1201,923,-4229,49,136,-115,-59,320,-602
89,1207,958,-4185,12,114,-114,-59,320,-602
90,1188,915,-4132,-15,139,-113,-59,320,-602
91,1198,942,-4032,-26,153,-108,-59,320,-602
92,1148,939,-3993,-22,183,-100,-59,320,-602
93,1149,978,-3994,-4,216,-100,-59,320,-602
94,1150,960,-4021,26,253,-99,-59,320,-602
95,1185,1015,-4040,60,305,-115,-48,311,-603
96,1170,983,-4011,87,345,-116,-48,311,-603
97,1183,1034,-4057,115,383,-135,-48,311,-603
98,1190,1045,-4076,135,425,-145,-48,311,-603
99,1194,1012,-4110,162,465,-174,-48,311,-603
100,1207,994,-4101,191,493,-190,-48,311,-603
101,1208,1034,-4075,214,525,-207,-48,311,-603
102,1204,994,-4066,243,531,-227,-48,311,-603
103,1236,987,-4062,266,541,-238,-48,311,-603
104,1209,962,-4121,283,552,-248,-48,311,-603
105,1222,970,-4080,289,573,-256,-48,311,-603
106,1200,929,-4097,288,595,-260,-48,311,-603
107,1222,906,-4138,288,604,-263,-48,311,-603
108,1225,901,-4104,309,597,-260,-48,311,-603
109,1281,857,-4093,344,513,-260,-48,311,-603
110,1291,825,-4068,343,399,-229,-48,311,-603
111,1275,818,-4067,274,330,-204,-42,306,-604
112,1247,828,-4055,184,315,-187,-42,306,-604
113,1254,843,-4033,106,307,-178,-42,306,-604
114,1267,874,-4010,60,272,-155,-42,306,-604
115,1279,915,-4036,56,213,-145,-42,306,-604
116,1282,905,-4048,59,160,-130,-42,306,-604
117,1259,895,-4042,39,131,-125,-42,306,-604
118,1243,906,-4109,15,125,-121,-42,306,-604
119,1270,924,-4079,8,128,-116,-42,306,-604
120,1269,940,-4069,6,142,-116,-42,306,-604
121,1277,942,-4062,24,148,-113,-42,306,-604
122,1281,951,-4044,49,151,-107,-42,306,-604
123,1270,947,-4006,46,163,-97,-42,306,-604
124,1278,955,-4016,41,189,-105,-42,306,-604
125,1291,983,-4047,23,227,-105,-42,306,-604
126,1285,980,-3998,27,244,-110,-42,306,-604
127,1301,948,-4094,38,244,-111,-43,311,-608
128,1318,928,-4099,43,211,-105,-43,311,-608
129,1307,923,-4053,30,174,-98,-43,311,-608
130,1289,920,-4140,-5,165,-97,-43,311,-608
131,1299,915,-4126,-46,187,-93,-43,311,-608
132,1274,898,-4093,-75,223,-97,-43,311,-608
133,1273,896,-4075,-72,243,-87,-43,311,-608
134,1302,874,-4013,-50,250,-85,-43,311,-608
135,1308,878,-4001,-42,252,-70,-43,311,-608
136,1305,891,-3995,-56,272,-56,-43,311,-608
137,1289,925,-4033,-87,302,-50,-43,311,-608
138,1299,949,-4007,-97,334,-47,-43,311,-608
139,1339,976,-3970,-84,360,-42,-43,311,-608
140,1324,977,-3998,-42,332,-49,-43,311,-608
141,1350,974,-4021,-12,226,-51,-43,311,-608
142,1340,956,-4047,0,117,-42,-43,311,-608
143,1336,948,-4094,-29,72,-38,-31,302,-608
144,1295,903,-4040,-62,72,-39,-31,302,-608
145,1272,920,-4008,-93,108,-37,-31,302,-608
146,1266,923,-3963,-98,116,-45,-31,302,-608
147,1289,926,-3938,-76,109,-42,-31,302,-608
148,1300,906,-3920,-51,67,-32,-31,302,-608
149,1286,927,-3988,-40,44,-25,-31,302,-608
150,1302,920,-4019,-44,60,-26,-31,302,-608
151,1311,911,-4051,-60,72,-20,-31,302,-608
152,1351,924,-4059,-62,79,-26,-31,302,-608
153,1357,975,-4079,-40,79,-27,-31,302,-608
154,1339,956,-4107,-16,76,-36,-31,302,-608
155,1315,901,-4098,7,70,-41,-31,302,-608
156,1309,877,-4097,24,60,-42,-31,302,-608
157,1313,839,-4095,20,73,-30,-31,302,-608
158,1317,847,-4114,0,79,-15,-31,302,-608
159,1326,820,-4105,-36,87,-14,-31,302,-608
160,1324,860,-4176,-89,79,-26,-35,301,-605
161,1342,882,-4185,-134,44,-33,-35,301,-605
162,1361,899,-4184,-160,-2,-39,-35,301,-605
163,1334,904,-4141,-175,-11,-46,-35,301,-605
164,1336,898,-4102,-187,-17,-43,-35,301,-605
165,1291,935,-4074,-191,-9,-51,-35,301,-605
166,1270,936,-3995,-199,8,-52,-35,301,-605
167,1296,918,-3956,-173,44,-49,-35,301,-605
168,1268,952,-3926,-141,83,-44,-35,301,-605
169,1270,970,-3843,-101,98,-37,-35,301,-605
170,1317,981,-3895,-55,61,-50,-35,301,-605
171,1287,963,-3915,-17,40,-45,-35,301,-605
172,1299,974,-3934,7,44,-32,-35,301,-605
173,1291,898,-3935,25,67,-32,-35,301,-605
174,1266,904,-3992,25,90,-24,-35,301,-605
175,1293,886,-4003,9,81,-24,-35,301,-605
176,1323,875,-4030,4,70,-22,-39,309,-609
177,1312,822,-4116,0,33,-16,-39,309,-609
178,1333,858,-4145,-7,1,6,-39,309,-609
179,1333,801,-4118,-24,-2,16,-39,309,-609
180,1319,822,-4042,-89,-19,31,-39,309,-609
181,1340,867,-4011,-156,2,45,-39,309,-609
182,1304,900,-3988,-226,17,42,-39,309,-609
183,1316,965,-3945,-246,17,53,-39,309,-609
184,1318,968,-3916,-217,5,49,-39,309,-609
185,1313,1013,-3911,-163,19,56,-39,309,-609
186,1311,1004,-3905,-127,39,51,-39,309,-609
187,1311,1017,-3963,-93,75,37,-39,309,-609
188,1323,990,-3956,-64,103,25,-39,309,-609
189,1296,951,-4030,-30,121,14,-39,309,-609
190,1335,888,-4036,23,123,-4,-39,309,-609
191,1378,825,-4193,34,111,7,-39,309,-609
192,1414,773,-4228,-35,78,37,-39,309,-609
193,1422,813,-4278,-164,36,60,-31,304,-610
194,1449,905,-4257,-310,-39,70,-31,304,-610
195,1425,1021,-4220,-371,-110,56,-31,304,-610
196,1442,1064,-4119,-344,-170,36,-31,304,-610
197,1359,1055,-4105,-289,-198,6,-31,304,-610
198,1319,1037,-4038,-241,-194,-22,-31,304,-610
199,1282,979,-4007,-231,-149,-36,-31,304,-610
200,1243,938,-3946,-217,-102,-34,-31,304,-610
201,1274,902,-3939,-183,-36,-30,-31,304,-610
202,1258,917,-3949,-143,22,-14,-31,304,-610
203,1254,937,-3890,-103,55,-8,-31,304,-610
204,1267,868,-3836,-104,45,19,-31,304,-610
205,1288,799,-3896,-134,49,60,-31,304,-610
206,1255,786,-3916,-174,86,100,-31,304,-610
207,1255,774,-3962,-224,128,150,-31,304,-610
208,1316,791,-3991,-286,147,179,-31,304,-610
209,1323,890,-4031,-335,147,199,-32,305,-601
210,1317,983,-4064,-350,136,193,-32,305,-601
211,1346,1010,-4087,-307,129,172,-32,305,-601
212,1349,1084,-4079,-259,120,146,-32,305,-601
213,1365,1071,-4123,-217,120,106,-32,305,-601
214,1319,1072,-4058,-183,129,59,-32,305,-601
215,1333,1034,-4033,-152,142,36,-32,305,-601
216,1335,1018,-4039,-114,139,20,-32,305,-601
217,1341,988,-4042,-97,139,5,-32,305,-601
218,1354,935,-4021,-98,82,1,-32,305,-601
219,1351,917,-4083,-108,49,12,-32,305,-601
220,1334,889,-4104,-142,19,33,-32,305,-601
221,1332,924,-4067,-187,9,59,-32,305,-601
222,1337,939,-4006,-218,-13,65,-32,305,-601
223,1332,962,-4022,-231,-10,69,-32,305,-601
224,1341,1013,-3963,-229,-7,55,-32,305,-601
225,1302,1018,-3945,-190,27,38,-34,318,-608
226,1314,971,-3948,-135,71,17,-34,318,-608
227,1309,940,-3986,-81,117,15,-34,318,-608
228,1336,950,-3980,-66,163,15,-34,318,-608
229,1330,978,-3976,-65,216,0,-34,318,-608
230,1301,1003,-3999,-29,293,-19,-34,318,-608
231,1316,1040,-4014,22,396,-32,-34,318,-608
232,1387,993,-4006,48,394,-51,-34,318,-608
233,1395,930,-4025,57,335,-55,-34,318,-608
234,1395,911,-4026,50,278,-45,-34,318,-608
235,1364,914,-4024,42,239,-24,-34,318,-608
236,1366,875,-4050,2,229,-6,-34,318,-608
237,1382,909,-4058,-40,227,1,-34,318,-608
238,1369,975,-4081,-74,239,7,-34,318,-608
239,1389,943,-4083,-81,234,0,-34,318,-608
240,1397,980,-4085,-77,222,-12,-34,318,-608
241,1397,946,-4141,-74,205,-30,-34,318,-608
242,1361,919,-4115,-75,210,-43,-34,318,-608
243,1380,947,-4084,-62,248,-50,-34,318,-608
244,1359,923,-4075,-67,298,-53,-34,318,-608
245,1362,918,-4048,-70,363,-53,-34,318,-608
246,1385,976,-4045,-63,412,-66,-34,318,-608
247,1380,983,-3987,-48,449,-69,-34,318,-608
248,1387,1012,-3935,-31,424,-70,-34,318,-608
249,1438,1008,-3897,1,370,-69,-34,318,-608
250,1412,1012,-3911,24,342,-74,-34,318,-608
251,1391,1020,-3943,55,358,-97,-34,318,-608
252,1391,1015,-3958,77,397,-108,-34,318,-608
253,1383,1018,-3960,107,426,-122,-34,318,-608
254,1387,976,-4011,134,430,-133,-34,318,-608
255,1411,979,-4030,170,345,-137,-34,318,-608
256,1458,999,-4061,179,233,-135,-34,318,-608
257,1423,993,-4090,180,148,-144,-34,318,-608
258,1439,1024,-4083,163,120,-160,-18,306,-595
259,1394,994,-4040,156,127,-180,-18,306,-595
260,1434,989,-4034,152,148,-201,-18,306,-595
261,1422,961,-4036,153,130,-210,-18,306,-595
262,1388,922,-4003,164,119,-212,-18,306,-595
263,1386,899,-3938,184,121,-205,-18,306,-595
264,1381,894,-3968,188,126,-193,-18,306,-595
265,1359,911,-3856,190,148,-179,-18,306,-595
266,1358,898,-3891,184,187,-169,-18,306,-595
267,1368,921,-3889,198,205,-157,-18,306,-595
268,1403,956,-3847,226,148,-145,-18,306,-595
269,1448,947,-3883,254,18,-130,-18,306,-595
270,1430,910,-3902,273,-75,-117,-18,306,-595
271,1433,957,-3963,280,-81,-115,-18,306,-595
272,1400,915,-3987,249,-53,-122,-18,306,-595
273,1438,937,-4036,205,-57,-126,-18,306,-595
274,1452,948,-4121,200,-79,-144,-27,308,-606
275,1487,944,-4191,201,-138,-145,-27,308,-606
276,1516,972,-4163,194,-203,-146,-27,308,-606
277,1522,1042,-4212,177,-252,-190,-27,308,-606
278,1490,1127,-4105,163,-279,-237,-27,308,-606
279,1475,1220,-4096,180,-288,-301,-27,308,-606
280,1526,1265,-4095,263,-328,-384,-27,308,-606
281,1561,1360,-4213,349,-409,-426,-27,308,-606
282,1710,1653,-4206,464,-580,-520,-27,308,-606
283,1766,1897,-4107,620,-771,-708,-27,308,-606
284,1775,1986,-3952,801,-969,-949,-27,308,-606
285,1630,1964,-4082,1115,-1004,-1207,-27,308,-606
286,1407,1719,-4244,1539,-846,-1414,-27,308,-606
287,1405,1282,-4256,1901,-732,-1520,-27,308,-606
288,1478,1052,-4096,2056,-814,-1524,-27,308,-606
289,1378,863,-4010,2123,-890,-1553,-27,308,-606
290,1256,676,-3934,2175,-869,-1506,-38,284,-620
291,1173,507,-3937,2129,-797,-1475,-38,284,-620
292,1129,385,-3899,2017,-716,-1387,-38,284,-620
293,1114,228,-3868,1835,-660,-1272,-38,284,-620
294,1156,107,-3902,1598,-682,-1125,-38,284,-620
295,1137,92,-3948,1345,-712,-988,-38,284,-620
296,1071,76,-3941,1127,-669,-857,-38,284,-620
297,1045,68,-3960,902,-634,-718,-38,284,-620
298,1156,163,-4023,693,-697,-600,-38,284,-620
299,1294,462,-4074,522,-933,-515,-38,284,-620
300,1443,846,-4172,367,-1273,-591,-38,284,-620
301,1410,1035,-4337,400,-1479,-671,-38,284,-620
302,1325,1036,-4443,593,-1487,-758,-38,284,-620
303,1313,887,-4617,777,-1429,-835,-38,284,-620
304,1417,755,-4681,804,-1560,-848,-38,284,-620
305,1492,717,-4804,678,-1869,-894,-38,264,-623
306,1472,761,-4757,529,-2164,-932,-69,264,-623
307,1379,976,-4695,447,-2375,-999,-69,264,-623
308,1259,1070,-4438,516,-2480,-1141,-69,264,-623
309,1125,939,-4197,700,-2468,-1248,-69,264,-623
310,955,687,-4089,846,-2335,-1293,-69,264,-623
311,828,379,-3981,851,-2153,-1243,-69,264,-623
312,823,189,-3851,738,-1993,-1128,-69,264,-623
313,915,86,-3836,591,-1607,-993,-69,264,-623
314,707,20,-3702,406,-1755,-827,-69,264,-623
315,664,162,-3636,230,-1669,-686,-69,264,-623
316,676,293,-3660,148,-1555,-576,-69,264,-623
317,804,606,-3572,62,-1495,-494,-69,264,-623
318,1020,1036,-3629,-18,-1680,-628,-69,264,-623
319,1116,1434,-3947,90,-1854,-807,-69,264,-623
320,1166,1618,-4286,420,-1966,-1043,-69,264,-623
321,1130,1462,-4522,833,-1880,-1228,-125,264,-628
322,953,1031,-4650,1051,-1715,-1339,-125,264,-628
323,839,584,-4660,1012,-1537,-1352,-125,264,-628
324,791,124,-4582,844,-1515,-1283,-125,264,-628
325,723,-143,-4570,637,-1588,-1144,-125,264,-628
326,695,-253,-4471,389,-1725,-954,-125,264,-628
327,797,-10,-4136,35,-1948,-826,-125,264,-628
328,718,428,-3778,-247,-2068,-839,-125,264,-628
329,585,646,-3821,-206,-1866,-806,-125,264,-628
330,504,642,-3811,-25,-1608,-765,-125,264,-628
331,543,519,-3771,75,-1477,-695,-125,264,-628
332,495,400,-3919,104,-1405,-600,-125,264,-628
333,495,302,-4078,100,-1326,-491,-125,264,-628
334,480,340,-4196,98,-1188,-381,-125,264,-628
335,513,450,-4193,90,-1088,-303,-125,264,-628
336,553,534,-4133,75,-1033,-260,-125,264,-628
337,584,618,-4183,66,-956,-232,-155,253,-629
338,553,703,-4232,101,-840,-229,-155,253,-629
339,551,697,-4247,145,-701,-210,-155,253,-629
340,558,648,-4185,156,-608,-198,-155,253,-629
341,534,524,-4227,139,-518,-161,-155,253,-629
342,525,467,-4388,110,-445,-128,-155,253,-629
343,640,452,-4574,18,-489,-97,-155,253,-629
344,885,776,-4518,-169,-750,-154,-155,253,-629
345,931,1165,-4409,-180,-971,-317,-155,253,-629
346,694,1290,-4456,119,-865,-451,-155,253,-629
347,583,1054,-4517,404,-653,-529,-155,253,-629
348,549,690,-4510,422,-539,-546,-155,253,-629
349,516,382,-4443,274,-536,-492,-155,253,-629
350,468,245,-4397,131,-564,-394,-155,253,-629
351,426,227,-4270,46,-559,-294,-155,253,-629
352,411,294,-4272,-26,-506,-204,-155,253,-629
353,422,366,-4252,-91,-427,-130,-176,244,-619
354,440,414,-4245,-160,-344,-65,-176,244,-619
355,411,501,-4300,-184,-227,-23,-176,244,-619
356,413,473,-4302,-184,-134,6,-176,244,-619
357,451,429,-4300,-170,-94,42,-176,244,-619
358,419,351,-4333,-183,-83,90,-176,244,-619
359,398,296,-4339,-239,-55,153,-176,244,-619
360,408,222,-4338,-320,-12,225,-176,244,-619
361,373,234,-4321,-411,23,315,-176,244,-619
362,382,216,-4328,-488,66,401,-176,244,-619
363,369,253,-4356,-534,122,499,-176,244,-619
364,383,260,-4368,-581,213,593,-176,244,-619
365,454,245,-4387,-671,209,681,-176,244,-619
366,519,330,-4391,-822,120,753,-176,244,-619
367,770,645,-4140,-1004,-144,688,-176,244,-619
368,702,1202,-4211,-949,-333,521,-176,244,-619
369,889,1670,-4121,-682,-367,339,-181,264,-621
370,900,2116,-3996,-357,-427,-48,-181,264,-621
371,760,2066,-4008,161,-236,-383,-181,264,-621
372,628,1691,-4076,625,-58,-599,-181,264,-621
373,495,853,-4155,876,35,-682,-181,264,-621
374,375,205,-4235,880,111,-605,-181,264,-621
375,305,-143,-4282,692,161,-424,-181,264,-621
376,321,-270,-4231,398,172,-218,-181,264,-621
377,357,-123,-4241,121,145,-45,-181,264,-621
378,396,126,-4254,-78,133,84,-181,264,-621
379,457,400,-4306,-184,114,148,-181,264,-621
380,518,609,-4340,-220,107,169,-181,264,-621
381,523,634,-4368,-205,104,179,-181,264,-621
382,510,577,-4364,-181,90,199,-181,264,-621
383,492,346,-4280,-188,33,279,-181,264,-621
384,437,65,-4271,-261,7,443,-181,264,-621
385,356,-92,-4318,-404,55,609,-174,254,-624
386,384,-248,-4305,-636,53,830,-174,254,-624
387,370,-339,-4288,-912,15,1093,-174,254,-624
388,398,-375,-4249,-1199,-58,1352,-174,254,-624
389,417,-393,-4208,-1528,-165,1627,-174,254,-624
390,292,-219,-4358,-1814,-85,1891,-174,254,-624
391,250,-14,-4372,-1997,220,2111,-174,254,-624
392,333,143,-4173,-2166,474,2271,-174,254,-624
393,408,319,-4049,-2262,626,2369,-174,254,-624
394,390,546,-3890,-2249,843,2452,-174,254,-624
395,297,761,-3847,-2053,1351,2517,-174,254,-624
396,462,835,-3675,-1835,1840,2520,-174,254,-624
397,600,533,-3380,-1798,2054,2584,-174,254,-624
398,603,478,-3402,-1988,2128,2683,-174,254,-624
399,446,524,-3490,-1989,2511,2804,-174,254,-624
400,429,652,-3549,-1863,2985,2927,-174,254,-624
401,575,740,-3565,-1779,3334,2976,-131,285,-611
402,827,978,-3477,-1278,3391,2945,-131,285,-611
403,848,990,-3689,-1097,3577,2891,-131,285,-611
404,907,1000,-3752,-1143,3752,2869,-131,285,-611
405,981,1234,-3912,-1094,3943,2698,-131,285,-611
406,1046,1265,-3914,-947,4160,2529,-131,285,-611
407,1156,1108,-3793,-778,4190,2405,-131,285,-611
408,1285,532,-3571,-993,3829,2479,-131,285,-611
409,1284,557,-3637,-1184,3442,2513,-131,285,-611
410,1115,390,-3920,-1464,3316,2617,-131,285,-611
411,1075,729,-4208,-1729,3436,2639,-131,285,-611
412,1306,1226,-4365,-1871,3570,2512,-131,285,-611
413,1905,1574,-4513,-1588,3211,2400,-131,285,-611
414,1864,1749,-4871,-1401,2859,2111,-131,285,-611
415,1889,2093,-4944,-1389,2588,1821,-131,285,-611
416,1844,2315,-4970,-1024,2199,1408,-131,285,-611
417,1773,2181,-4895,-694,2025,1076,-40,315,-605
418,1606,2065,-4845,-367,1925,787,-40,315,-605
419,1629,1888,-4660,-84,1764,517,-40,315,-605
420,1688,1646,-4400,136,1524,314,-40,315,-605
421,1415,1413,-4332,214,1459,215,-40,315,-605
422,1372,1324,-4185,340,1502,85,-40,315,-605
423,1307,1129,-4008,492,1622,23,-40,315,-605
424,1321,1041,-3879,539,1781,-34,-40,315,-605
425,1273,1060,-3850,618,2053,-63,-40,315,-605
426,1378,1098,-3824,719,2215,-138,-40,315,-605
427,1425,1108,-3790,807,2417,-227,-40,315,-605
428,1359,1210,-3806,1026,2879,-334,-40,315,-605
429,1383,1257,-3691,1335,3451,-483,-40,315,-605
430,1476,1287,-3615,1671,3901,-670,-40,315,-605
431,1556,1324,-3515,2043,4228,-838,-40,315,-605
432,1578,1305,-3508,2401,4529,-979,11,291,-613
433,1629,1305,-3551,2750,4821,-1144,11,291,-613
434,1752,1250,-3565,3121,5068,-1285,11,291,-613
435,1713,1282,-3721,3446,5383,-1461,11,291,-613
436,1890,1182,-3826,3717,5578,-1634,11,291,-613
437,1903,1174,-3977,3935,5791,-1707,11,291,-613
438,2001,1054,-4037,4131,5787,-1829,11,291,-613
439,2171,841,-4219,4225,5717,-1837,11,291,-613
440,2295,657,-4391,4205,5484,-1871,11,291,-613
441,2317,483,-4411,4081,5328,-1889,11,291,-613
442,2456,386,-4414,3919,5042,-1864,11,291,-613
443,2261,221,-4310,3648,5054,-1823,11,291,-613
444,2238,114,-4237,3460,5037,-1793,11,291,-613
445,2284,46,-4165,3224,5141,-1704,11,291,-613
446,2160,174,-4101,2997,5490,-1642,11,291,-613
447,2453,142,-3895,2826,5382,-1596,11,291,-613
448,2418,161,-3835,2543,5360,-1489,102,221,-621
449,2418,221,-3697,2363,5394,-1452,102,221,-621
450,2489,258,-3665,2224,5269,-1502,102,221,-621
451,2432,327,-3507,2089,5141,-1477,102,221,-621
452,2497,367,-3499,1977,4977,-1326,102,221,-621
453,2345,366,-3510,1883,4919,-1229,102,221,-621
454,2344,341,-3500,1846,4814,-1202,102,221,-621
455,2501,258,-3506,1766,4581,-1137,102,221,-621
456,2594,240,-3349,1689,4460,-1152,102,221,-621
457,2652,171,-3103,1559,4322,-1158,102,221,-621
458,2431,258,-3111,1463,4582,-1054,102,221,-621
459,2426,378,-3239,1379,4645,-1057,102,221,-621
460,2491,381,-3197,1266,4494,-979,102,221,-621
461,2584,384,-3227,1162,4189,-969,102,221,-621
462,2576,366,-3209,1098,3876,-840,102,221,-621
463,2598,371,-3262,1047,3645,-773,102,221,-621
464,2704,329,-3195,1021,3359,-726,183,198,-611
465,2665,295,-3204,922,3261,-685,183,198,-611
466,2745,346,-3268,809,3090,-705,183,198,-611
467,2838,324,-3340,710,2943,-631,183,198,-611
468,2932,329,-3489,645,2734,-592,183,198,-611
469,3112,334,-3655,583,2411,-539,183,198,-611
470,3306,297,-3763,497,2015,-470,183,198,-611
471,3414,241,-3801,399,1617,-397,183,198,-611
472,3444,207,-3783,283,1284,-341,183,198,-611
473,3405,195,-3684,159,1145,-334,183,198,-611
474,3297,118,-3408,28,1357,-398,183,198,-611
475,3091,160,-3017,-73,1925,-521,183,198,-611
476,2894,261,-2838,-95,2571,-629,183,198,-611
477,2804,354,-2732,-46,3052,-706,183,198,-611
478,2722,490,-2727,84,3291,-721,183,198,-611
479,2702,527,-2708,252,3273,-730,235,191,-592
480,2689,553,-2758,431,3106,-689,235,191,-592
481,2739,497,-2779,553,2876,-649,235,191,-592
482,2813,414,-2847,563,2661,-600,235,191,-592
483,2817,367,-2860,530,2465,-578,235,191,-592
484,2903,318,-2945,459,2268,-543,235,191,-592
485,2923,258,-2899,337,2097,-509,235,191,-592
486,2975,266,-2934,246,1919,-445,235,191,-592
487,3022,256,-3012,158,1694,-384,235,191,-592
488,3069,236,-2985,81,1469,-318,235,191,-592
489,3109,254,-3011,20,1247,-277,235,191,-592
490,3202,301,-3030,-31,1036,-242,235,191,-592
491,3242,270,-3113,-78,794,-187,235,191,-592
492,3266,311,-3065,-127,514,-145,235,191,-592
493,3219,291,-3104,-181,270,-72,235,191,-592
494,3235,365,-3086,-234,11,-13,235,191,-592
495,3192,349,-3060,-276,-222,41,260,190,-576
496,3157,373,-2969,-325,-440,76,260,190,-576
497,3143,371,-2921,-352,-587,107,260,190,-576
498,3067,320,-2717,-371,-555,92,260,190,-576
499,2900,241,-2443,-372,-167,6,260,190,-576
500,2637,292,-2306,-332,456,-95,260,190,-576
501,2633,355,-2270,-261,1195,-165,260,190,-576
502,2665,462,-2364,-156,1743,-221,260,190,-576
503,2846,597,-2485,3,2050,-267,260,190,-576
504,3018,595,-2603,171,2142,-304,260,190,-576
505,3143,502,-2819,288,2160,-328,260,190,-576
506,3318,478,-2929,457,2072,-352,260,190,-576
507,3369,363,-2972,479,1908,-343,260,190,-576
508,3470,261,-3102,377,1720,-307,260,190,-576
509,3578,166,-3183,199,1463,-266,260,190,-576
510,3696,141,-3233,20,1145,-209,260,190,-576
511,3703,144,-3229,-174,836,-168,277,194,-573
512,3682,169,-3119,-353,603,-160,277,194,-573
513,3636,211,-3030,-485,457,-185,277,194,-573
514,3522,295,-3009,-611,373,-164,277,194,-573
515,3443,347,-2926,-708,289,-155,277,194,-573
516,3411,388,-2855,-756,194,-168,277,194,-573
517,3299,422,-2783,-799,162,-145,277,194,-573
518,3239,498,-2677,-714,147,-149,277,194,-573
519,3102,495,-2595,-658,264,-159,277,194,-573
520,3079,519,-2428,-589,538,-213,277,194,-573
521,3036,497,-2355,-531,947,-309,277,194,-573
522,3040,402,-2316,-512,1539,-437,277,194,-573
523,3097,349,-2255,-473,2227,-522,277,194,-573
524,3161,388,-2321,-402,2869,-550,277,194,-573
525,3280,427,-2451,-344,3217,-557,277,194,-573
526,3394,430,-2619,-338,3290,-553,277,194,-573
527,3456,425,-2802,-323,3246,-535,302,201,-553
528,3713,252,-2796,-274,3109,-540,302,201,-553
529,3927,116,-2850,-294,2867,-522,302,201,-553
530,4025,73,-2992,-242,2520,-454,302,201,-553
531,4038,-144,-3067,-600,2215,-334,302,201,-553
532,4047,-13,-2982,-989,1932,-303,302,201,-553
533,4013,157,-2871,-1177,1594,-331,302,201,-553
534,3875,251,-2801,-1320,1244,-322,302,201,-553
535,3657,337,-2642,-1491,905,-353,302,201,-553
536,3462,414,-2527,-1621,597,-439,302,201,-553
537,3223,366,-2404,-1799,240,-588,302,201,-553
538,3080,443,-2347,-1900,-21,-632,302,201,-553
539,2904,483,-2324,-1948,-85,-576,302,201,-553
540,2960,435,-2273,-1876,-222,-638,302,201,-553
541,3056,339,-2290,-1896,-453,-667,302,201,-553
542,3139,332,-2343,-1931,-632,-647,302,201,-553
543,3221,295,-2333,-2089,-644,-558,312,220,-529
544,3240,456,-2349,-2244,-512,-490,312,220,-529
545,3375,688,-2466,-2258,-421,-464,312,220,-529
546,3519,932,-2487,-2065,-441,-458,312,220,-529
547,3636,976,-2547,-1901,-574,-387,312,220,-529
548,3667,954,-2598,-1783,-728,-363,312,220,-529
549,3564,858,-2563,-1706,-952,-476,312,220,-529
550,3378,398,-2502,-1784,-1326,-734,312,220,-529
551,3198,238,-2375,-2024,-1601,-745,312,220,-529
552,3142,301,-2358,-2225,-1694,-510,312,220,-529
553,3148,363,-2356,-2324,-1785,-429,312,220,-529
554,3151,504,-2377,-2477,-1929,-414,312,220,-529
555,3225,726,-2437,-2504,-2045,-264,312,220,-529
556,3403,877,-2585,-2396,-2152,-136,312,220,-529
557,3662,1024,-2782,-2221,-2281,0,312,220,-529
558,3796,1094,-2948,-2095,-2446,102,312,220,-529
559,3919,1095,-3106,-1939,-2749,206,312,220,-529
560,3868,1155,-3252,-1710,-3170,452,312,220,-529
561,3812,1663,-3323,-1376,-3824,1062,312,220,-529
562,3645,1701,-3312,-940,-4611,1511,312,220,-529
563,3444,1707,-3276,-501,-5194,1672,312,220,-529
564,3113,2276,-3505,156,-5821,2280,312,220,-529
565,3079,2042,-3363,934,-6504,2778,312,220,-529
566,3073,1737,-3267,1312,-7242,2880,312,220,-529
567,2766,1720,-3283,1425,-7885,3297,312,220,-529
568,2764,1568,-3149,1689,-8301,3413,312,220,-529
569,2771,1173,-3188,1540,-8411,3353,312,220,-529
570,2345,1097,-3475,1436,-7970,3165,312,220,-529
571,2661,1163,-3323,1308,-7396,3321,312,220,-529
572,2500,1419,-3478,908,-6480,3280,312,220,-529
573,2575,1291,-3712,232,-5662,3565,312,220,-529
574,3080,1262,-3331,-421,-5172,3248,208,235,-591
575,3858,1518,-3216,-570,-6029,2991,208,235,-591
576,3966,1349,-2702,-352,-7371,2640,208,235,-591
577,3425,937,-2785,1,-8083,1958,208,235,-591
578,2993,630,-2727,-479,-8000,1544,208,235,-591
579,3074,484,-2598,-259,-8493,1335,208,235,-591
580,2421,477,-2946,26,-8032,1266,208,235,-591
581,2401,88,-3158,-342,-7562,1232,208,235,-591
582,2606,243,-3200,-774,-7315,1112,208,235,-591
583,2494,395,-3007,-1009,-7099,919,208,235,-591
584,2527,395,-2885,-1210,-7131,543,208,235,-591
585,2332,567,-3190,-902,-6940,237,208,235,-591
586,2113,476,-3181,-714,-6495,202,208,235,-591
587,2092,448,-3249,-687,-6156,-87,208,235,-591
588,2183,199,-3571,-813,-5881,-380,208,235,-591
589,2334,171,-4100,-1190,-5696,-487,208,235,-591
590,2402,201,-3969,-1723,-5844,-617,79,239,-622
591,2327,426,-3984,-2292,-6134,-1019,79,239,-622
592,2121,700,-3722,-2656,-6467,-1285,79,239,-622
593,1902,929,-3219,-2944,-6811,-1530,79,239,-622
594,1636,998,-3012,-3101,-7010,-1846,79,239,-622
595,1379,1153,-2611,-2995,-6990,-1903,79,239,-622
596,1036,1041,-2332,-2675,-6939,-2069,79,239,-622
597,714,702,-2265,-2338,-6694,-2075,79,239,-622
598,476,409,-2436,-1996,-6160,-1910,79,239,-622
599,354,124,-2564,-1725,-5426,-1596,79,239,-622
600,415,-9,-2834,-1580,-4657,-1190,79,239,-622
601,602,269,-2877,-1544,-4063,-799,79,239,-622
602,800,682,-2847,-1484,-3690,-600,79,239,-622
603,951,1045,-2877,-1243,-3283,-486,79,239,-622
604,996,1208,-3033,-850,-2763,-381,79,239,-622
605,1020,1325,-3070,-601,-2172,-301,-51,298,-620
606,1011,1318,-3112,-513,-1557,-291,-51,298,-620
607,985,1471,-3018,-365,-951,-269,-51,298,-620
608,889,1627,-3183,40,-315,-260,-51,298,-620
609,1119,1562,-3248,474,146,-274,-51,298,-620
610,1291,1481,-3580,1078,619,-274,-51,298,-620
611,1206,1247,-4004,1470,1167,-287,-51,298,-620
612,1347,1004,-4257,1602,1584,-276,-51,298,-620
613,1398,890,-4389,1646,1907,-277,-51,298,-620
614,1374,766,-4359,1671,2309,-281,-51,298,-620
615,1258,728,-4068,1706,2672,-285,-51,298,-620
616,1091,704,-3790,1838,3024,-277,-51,298,-620
617,1030,550,-3519,1977,3435,-237,-51,298,-620
618,985,439,-3298,2178,3956,-201,-51,298,-620
619,902,309,-3184,2419,4618,-147,-51,298,-620
620,885,164,-3147,2674,5356,-77,-51,298,-620
621,996,3,-3120,2931,6068,34,-7,262,-632
622,1011,-46,-3143,3131,6870,146,-7,262,-632
623,1035,-37,-3026,3526,8026,261,-7,262,-632
624,1142,25,-2829,4022,9240,318,-7,262,-632
625,1293,39,-2624,4608,10355,362,-7,262,-632
626,1689,-50,-2484,5170,11154,350,-7,262,-632
627,1947,-209,-2500,5676,11687,310,-7,262,-632
628,2211,-239,-2674,6432,12081,237,-7,262,-632
629,2702,-587,-2992,6686,12076,165,-7,262,-632
630,3389,-843,-3484,6505,11028,191,-7,262,-632
631,3752,-1021,-3957,6004,9873,15,-7,262,-632
632,4900,-1254,-4414,5002,7926,-35,-7,262,-632
633,3855,-1001,-5081,4117,6696,-300,-7,262,-632
634,4036,-727,-5212,3558,5716,-163,-7,262,-632
635,4209,-440,-5753,3685,4579,-420,-7,262,-632
636,3597,-939,-6183,3035,4334,-710,-7,262,-632
637,3379,-1219,-6688,1972,4537,-669,165,155,-625
638,3670,-1108,-6818,1343,4550,-496,165,155,-625
639,4324,-1365,-6654,741,3587,-388,165,155,-625
640,4145,-1629,-6327,-93,2851,-254,165,155,-625
641,3998,-1546,-5806,-762,2580,-98,165,155,-625
642,3783,-1333,-5289,-1221,2258,-82,165,155,-625
643,3603,-1100,-4859,-1590,1972,-13,165,155,-625
644,3493,-840,-4227,-2030,1651,114,165,155,-625
645,2939,-652,-3947,-2441,1608,153,165,155,-625
646,2987,-532,-3352,-2847,1228,227,165,155,-625
647,2579,-406,-2827,-3113,1028,242,165,155,-625
648,2568,-133,-2296,-3225,975,415,165,155,-625
649,2190,84,-2307,-3322,1425,439,165,155,-625
650,2229,458,-2250,-3211,1666,346,165,155,-625
651,2227,681,-2480,-3079,2020,325,165,155,-625
652,2519,778,-2859,-2929,2225,294,165,155,-625
653,2838,825,-3123,-2787,2018,214,209,192,-609
654,3088,932,-3396,-2494,1725,105,209,192,-609
655,3303,800,-3722,-2336,1483,10,209,192,-609
656,3406,691,-3975,-2170,1268,-114,209,192,-609
657,3535,615,-4129,-2100,943,-160,209,192,-609
658,3585,455,-4219,-2159,583,-214,209,192,-609
659,3658,212,-4233,-2295,-60,-300,209,192,-609
660,3475,-268,-4067,-2759,-1479,-289,209,192,-609
661,3275,-447,-3840,-3576,-2936,122,209,192,-609
662,3263,-277,-3726,-4355,-4077,546,209,192,-609
663,3072,102,-3593,-5061,-4847,842,209,192,-609
664,2803,746,-3515,-5641,-5523,1186,209,192,-609
665,2592,1407,-3610,-5860,-6308,1595,209,192,-609
666,2664,2196,-3602,-5969,-7424,2320,209,192,-609
667,2530,2854,-3396,-5734,-8484,2430,209,192,-609
668,2352,2741,-3506,-5381,-8691,2280,170,249,-600
669,2588,2402,-3687,-4782,-8657,2044,170,249,-600
670,1990,1743,-3732,-4287,-7745,1798,170,249,-600
671,2090,1455,-4054,-3914,-6554,1592,170,249,-600
672,2259,1440,-4029,-3828,-6077,1768,170,249,-600
673,2326,2140,-3390,-4298,-6428,2135,170,249,-600
674,2866,2740,-2654,-4436,-7705,1740,170,249,-600
675,3484,2770,-2336,-3934,-9876,1152,170,249,-600
676,2706,2119,-1643,-4001,-10240,487,170,249,-600
677,2847,2269,-1433,-2966,-11193,-75,170,249,-600
678,1932,2086,-1683,-1632,-11456,-564,170,249,-600
679,1105,1073,-2099,-1267,-10397,-719,170,249,-600
680,1206,-10,-2350,-2373,-9723,-933,170,249,-600
681,1424,320,-2779,-2758,-9315,-1001,170,249,-600
682,1430,579,-3092,-2484,-8700,-1161,170,249,-600
683,1392,905,-3323,-2080,-8147,-1377,170,249,-600
684,1504,1287,-3310,-1456,-7703,-1633,3,312,-601
685,1564,1660,-3147,-922,-7416,-1948,3,312,-601
686,1458,1657,-3141,-375,-7064,-2350,3,312,-601
687,1146,1406,-3298,317,-6359,-2538,3,312,-601
688,1000,1110,-3328,811,-5665,-2594,3,312,-601
689,943,862,-3281,991,-5056,-2651,3,312,-601
690,866,774,-3455,1146,-4396,-2612,3,312,-601
691,812,817,-3553,1382,-3846,-2508,3,312,-601
692,823,988,-3572,1523,-3351,-2449,3,312,-601
693,811,1237,-3385,1657,-2857,-2483,3,312,-601
694,822,1523,-3210,1944,-2457,-2537,3,312,-601
695,768,1483,-3263,2445,-2010,-2630,3,312,-601
696,662,1110,-3535,2894,-1454,-2615,3,312,-601
697,548,574,-3795,2871,-864,-2512,3,312,-601
698,653,277,-3879,2546,-489,-2348,3,312,-601
699,692,363,-3925,2338,-164,-2157,-103,298,-616
700,858,531,-3770,2160,45,-2063,-103,298,-616
701,911,770,-3715,2095,123,-2045,-103,298,-616
702,908,813,-3783,2178,183,-2063,-103,298,-616
703,841,578,-3899,2217,332,-2014,-103,298,-616
704,815,191,-3780,2124,493,-1946,-103,298,-616
705,714,80,-3616,1994,727,-1807,-103,298,-616
706,698,250,-3156,1897,1014,-1707,-103,298,-616
707,548,420,-2886,2135,1548,-1649,-103,298,-616
708,387,196,-2876,2525,2337,-1487,-103,298,-616
709,438,-284,-2789,2729,3173,-1231,-103,298,-616
710,488,-478,-2755,2591,3848,-963,-103,298,-616
711,642,-450,-2753,2399,4334,-683,-103,298,-616
712,693,-356,-2889,2428,4812,-455,-103,298,-616
713,645,-376,-2824,2721,5472,-173,-103,298,-616
714,806,-552,-2687,2935,6061,128,-103,298,-616
715,1005,-621,-2638,2849,6428,398,-64,240,-643
716,1167,-574,-2873,2644,6865,633,-64,240,-643
717,1431,-591,-3207,2476,7217,826,-64,240,-643
718,1756,-658,-3516,2244,7322,1026,-64,240,-643
719,1950,-731,-3946,1987,7272,1222,-64,240,-643
720,2124,-715,-4313,1628,7168,1383,-64,240,-643
721,2113,-603,-4637,1183,7169,1513,-64,240,-643
722,2295,-211,-4806,660,7307,1551,-64,240,-643
723,2528,-143,-4876,473,7181,1524,-64,240,-643
724,2605,-173,-5022,-84,6936,1475,-64,240,-643
725,3444,-264,-4696,-156,6198,1501,-64,240,-643
726,2383,-562,-5443,12,5250,1654,-64,240,-643
727,2220,-1065,-5758,-741,4966,1793,-64,240,-643
728,2783,-968,-5727,-1304,4307,1996,-64,240,-643
729,2124,-909,-5920,-1636,4282,2125,-64,240,-643
730,2341,-893,-5898,-2053,4118,2387,-64,240,-643
731,2488,-1024,-5819,-2631,3531,2632,73,211,-633
732,2450,-1077,-5754,-3033,2806,3071,73,211,-633
733,2685,-1034,-5806,-3399,1789,3416,73,211,-633
734,2500,-1072,-5731,-4225,1026,3749,73,211,-633
735,2398,-375,-5396,-4757,536,4022,73,211,-633
736,2378,120,-4994,-4842,220,4157,73,211,-633
737,2426,234,-4523,-5136,-29,4260,73,211,-633
738,2475,426,-4191,-5524,-301,4362,73,211,-633
739,2495,945,-3863,-5475,-524,4329,73,211,-633
740,2505,1059,-3627,-5403,-562,4197,73,211,-633
741,2485,1416,-3504,-5134,-489,4034,73,211,-633
742,2410,1470,-3406,-4592,-209,3763,73,211,-633
743,2375,1435,-3253,-4123,109,3467,73,211,-633
744,2400,1446,-3263,-3659,331,3226,73,211,-633
745,2386,1330,-3387,-3150,506,2949,73,211,-633
746,2295,1008,-3559,-2858,608,2825,73,279,-602
747,2341,883,-3712,-2766,658,2672,115,279,-602
748,2361,923,-3966,-2766,705,2553,115,279,-602
749,2425,937,-4318,-2781,645,2422,115,279,-602
750,2401,880,-4760,-2909,437,2289,115,279,-602
751,2546,801,-5048,-3101,71,2125,115,279,-602
752,2540,714,-5300,-3268,-405,1975,115,279,-602
753,2563,450,-5494,-3540,-1029,1906,115,279,-602
754,2611,250,-5532,-3946,-1750,1947,115,279,-602
755,2468,201,-5462,-4483,-2404,2040,115,279,-602
756,2483,387,-5028,-5013,-2979,2138,115,279,-602
757,2367,683,-4697,-5408,-3406,2168,115,279,-602
758,2232,1006,-4309,-5534,-3616,2106,115,279,-602
759,2227,1448,-3844,-5311,-3777,1950,115,279,-602
760,2381,1615,-3679,-5093,-3934,1782,115,279,-602
761,2285,1678,-3529,-4824,-3907,1567,115,279,-602
762,2139,1694,-3357,-4457,-3784,1346,116,331,-572
763,2136,1503,-3334,-4324,-3828,1186,116,331,-572
764,1931,1406,-3508,-4095,-3765,1102,116,331,-572
765,2041,1515,-3701,-3807,-3780,929,116,331,-572
766,2155,1463,-3816,-3918,-3967,899,116,331,-572
767,2044,1861,-3777,-3952,-4039,708,116,331,-572
768,2072,2364,-4004,-3710,-4310,416,116,331,-572
769,2331,2636,-3901,-3282,-4447,-80,116,331,-572
770,2252,2543,-3816,-2795,-4615,-473,116,331,-572
771,2035,2335,-3832,-2417,-4492,-782,116,331,-572
772,2155,2226,-3680,-2249,-4431,-995,116,331,-572
773,2307,2467,-3421,-2111,-4655,-1185,116,331,-572
774,2118,2713,-3335,-2098,-4669,-1626,116,331,-572
775,2129,2978,-3275,-1728,-4734,-2045,116,331,-572
776,2179,3048,-3397,-1192,-4912,-2531,116,331,-572
777,1846,3118,-3713,-414,-4885,-2997,33,383,-552
778,1608,2968,-4152,-77,-4595,-3428,33,383,-552
779,1625,3381,-4114,314,-4398,-3869,33,383,-552
780,1854,3843,-3964,923,-4386,-4598,33,383,-552
781,1761,4509,-4179,1796,-4191,-5395,33,383,-552
782,2107,4643,-4293,3042,-4112,-6432,33,383,-552
783,2014,3653,-4231,3359,-3974,-7104,33,383,-552
784,2238,3001,-3851,3651,-4250,-7623,33,383,-552
785,2153,2110,-3273,4206,-4719,-7743,33,383,-552
786,1850,1216,-2646,4026,-4754,-7690,33,383,-552
787,1697,885,-1856,3834,-4644,-7498,33,383,-552
788,1018,-632,-1089,2836,-4149,-7049,33,383,-552
789,749,-122,-808,2318,-3455,-6565,33,383,-552
790,691,5,-902,2786,-3069,-5984,33,383,-552
791,703,-675,-1327,2574,-3038,-5467,33,383,-552
792,588,-686,-2042,1543,-2771,-4922,33,383,-552
793,639,184,-2342,546,-2340,-4547,-123,361,-580
794,779,1341,-2484,626,-2233,-4560,-123,361,-580
795,732,1817,-2901,1349,-1948,-4640,-123,361,-580
796,758,1624,-3155,1997,-1812,-4657,-123,361,-580
797,723,1225,-3156,2102,-1671,-4625,-123,361,-580
798,482,1085,-3121,2045,-1409,-4566,-123,361,-580
799,519,1033,-2860,2155,-995,-4367,-123,361,-580
800,570,1479,-2346,2249,-664,-4380,-123,361,-580
801,285,1571,-2578,2623,-172,-4353,-123,361,-580
802,326,1278,-2914,3007,284,-4245,-123,361,-580
803,458,682,-3451,3098,542,-4051,-123,361,-580
804,398,402,-3792,2898,666,-3790,-123,361,-580
805,483,374,-3883,2687,635,-3577,-123,361,-580
806,418,436,-4087,2616,676,-3382,-123,361,-580
807,385,335,-4170,2600,767,-3161,-123,361,-580
808,489,388,-3874,2457,712,-3069,-123,361,-580
809,242,307,-3852,2444,892,-2948,-180,299,-602
810,182,129,-3701,2502,1234,-2772,-180,299,-602
811,240,110,-3364,2400,1546,-2640,-180,299,-602
812,112,174,-3191,2397,2007,-2516,-180,299,-602
813,16,2,-3140,2529,2713,-2318,-180,299,-602
814,37,-221,-3106,2581,3346,-2081,-180,299,-602
815,69,-482,-3036,2492,3938,-1791,-180,299,-602
816,96,-524,-2875,2386,4465,-1497,-180,299,-602
817,149,-440,-2819,2392,5035,-1203,-180,299,-602
818,222,-388,-2748,2445,5634,-938,-180,299,-602
819,467,-198,-2696,2534,6164,-719,-180,299,-602
820,555,-208,-2822,2636,6660,-519,-180,299,-602
821,719,-223,-2925,2755,7143,-323,-180,299,-602
822,971,-283,-2985,2781,7568,-125,-180,299,-602
823,1166,-217,-3091,2779,7922,9,-180,299,-602
824,1367,-142,-3098,2828,8187,100,-94,235,-636
825,1470,-202,-3322,2932,8524,221,-94,235,-636
826,1717,-205,-3516,3066,8710,287,-94,235,-636
827,1833,-279,-3710,3073,8919,349,-94,235,-636
828,2008,-417,-3887,3048,8959,416,-94,235,-636
829,1995,-666,-4249,2761,9007,529,-94,235,-636
830,2241,-801,-4431,2563,8923,613,-94,235,-636
831,2402,-957,-4578,2059,8750,764,-94,235,-636
832,2395,-1258,-4660,1169,8331,937,-94,235,-636
833,2495,-811,-5039,901,7633,1153,-94,235,-636
834,2463,-735,-5093,431,7059,1352,-94,235,-636
835,3047,-547,-5347,597,5998,1419,-94,235,-636
836,2470,-655,-5633,601,5628,1435,-94,235,-636
837,2284,-1156,-5772,-28,5581,1588,-94,235,-636
838,2417,-1400,-5869,-591,5209,1768,-94,235,-636
839,2530,-1645,-5988,-1134,4525,1953,-94,235,-636
840,2188,-1428,-5985,-1445,4142,2399,54,202,-652
841,2381,-1197,-6055,-1429,3610,2661,54,202,-652
842,2475,-1053,-6056,-1589,2893,2835,54,202,-652
843,2318,-1210,-6234,-1987,2511,3097,54,202,-652
844,2414,-1110,-6061,-2223,2078,3335,54,202,-652
845,2385,-1240,-5826,-2930,1737,3668,54,202,-652
846,2560,-565,-5664,-3124,1326,3948,54,202,-652
847,2462,-460,-5451,-3307,1085,3992,54,202,-652
848,2467,-133,-5127,-3619,946,4041,54,202,-652
849,2633,316,-4762,-3614,785,3958,54,202,-652
850,2755,487,-4481,-3443,523,3799,54,202,-652
851,2738,431,-4044,-3356,298,3751,54,202,-652
852,2736,452,-3782,-3296,2,3737,54,202,-652
853,2502,574,-3695,-3292,-34,3682,54,202,-652
854,2406,750,-3686,-3243,248,3562,54,202,-652
855,2443,842,-3645,-3073,532,3360,54,202,-652
856,2496,838,-3569,-2920,764,3139,113,228,-628
857,2542,868,-3395,-2709,904,2940,113,228,-628
858,2452,903,-3267,-2421,1091,2824,113,228,-628
859,2434,892,-3272,-2135,1264,2605,113,228,-628
860,2453,856,-3156,-1988,1384,2407,113,228,-628
861,2515,662,-3049,-2040,1309,2298,113,228,-628
862,2624,637,-3147,-2052,1126,2307,113,228,-628
863,2707,527,-3351,-2189,832,2337,113,228,-628
864,2471,376,-3635,-2399,843,2383,113,228,-628
865,2446,413,-3911,-2492,891,2351,113,228,-628
866,2511,467,-4173,-2755,791,2332,113,228,-628
867,2510,552,-4551,-2975,560,2319,113,228,-628
868,2576,629,-4730,-3200,206,2293,113,228,-628
869,2649,766,-4898,-3420,-321,2284,113,228,-628
870,2642,920,-5039,-3609,-852,2215,113,228,-628
871,2623,1004,-5116,-3799,-1353,2107,148,258,-596
872,2708,1067,-5122,-3981,-1931,1965,148,258,-596
873,2759,1115,-5008,-4157,-2541,1801,148,258,-596
874,2660,1143,-4918,-4241,-3108,1686,148,258,-596
875,2597,1070,-4861,-4304,-3707,1573,148,258,-596
876,2670,948,-4658,-4445,-4357,1490,148,258,-596
877,2486,900,-4524,-4590,-4793,1458,148,258,-596
878,2372,934,-4466,-4754,-5052,1353,148,258,-596
879,2245,1027,-4322,-4778,-5058,1204,148,258,-596
880,2371,972,-4181,-4944,-5142,1100,148,258,-596
881,2331,1173,-4076,-4906,-5094,970,148,258,-596
882,2170,1338,-4062,-4815,-4965,810,148,258,-596
883,2367,1290,-4109,-4808,-5197,702,148,258,-596
884,2278,1496,-4089,-4643,-5389,524,148,258,-596
885,2259,1829,-3975,-4445,-5381,410,148,258,-596
886,2528,2270,-3415,-4344,-5663,176,148,258,-596
887,2852,2677,-3360,-4133,-6283,-195,81,345,-577
888,2641,3085,-3685,-3635,-6319,-747,81,345,-577
889,2234,3716,-3952,-2733,-5674,-1487,81,345,-577
890,2575,3681,-4142,-2104,-5349,-2316,81,345,-577
891,2831,4198,-4282,-825,-5660,-3026,81,345,-577
892,2395,4103,-4263,-264,-5521,-3797,81,345,-577
893,2771,3893,-4117,-112,-5676,-4728,81,345,-577
894,2558,4286,-3841,623,-5412,-5576,81,345,-577
895,2648,3588,-3437,1984,-5484,-6324,81,345,-577
896,2174,2237,-3042,2553,-5177,-6600,81,345,-577
897,2145,1460,-2548,2877,-5043,-6592,81,345,-577
898,1956,819,-1959,2501,-5298,-6385,81,345,-577
899,1602,302,-1171,1181,-5312,-6121,81,345,-577
900,1311,600,-525,650,-5168,-5961,81,345,-577
901,1081,1387,-141,964,-4969,-5875,81,345,-577
902,835,1114,-314,1407,-4478,-5748,-71,351,-591
903,778,689,-840,1307,-3926,-5572,-71,351,-591
904,800,548,-1744,1038,-3490,-5368,-71,351,-591
905,916,674,-2459,992,-3370,-5179,-71,351,-591
906,933,1110,-2784,960,-3384,-5079,-71,351,-591
907,1157,1612,-2890,983,-3426,-5225,-71,351,-591
908,909,1662,-3321,1415,-3206,-5342,-71,351,-591
909,671,1051,-3569,1534,-2763,-5290,-71,351,-591
910,806,926,-3330,1530,-2629,-5193,-71,351,-591
911,618,684,-3232,1644,-2398,-5018,-71,351,-591
912,321,371,-3182,1720,-2009,-4747,-71,351,-591
913,361,512,-2775,1664,-1705,-4525,-71,351,-591
914,251,535,-2700,1663,-1327,-4371,-71,351,-591
915,21,456,-2842,1920,-659,-4109,-71,351,-591
916,54,154,-3048,2095,-143,-3794,-71,351,-591
917,116,-97,-3238,2024,183,-3458,-71,351,-591
918,196,67,-3344,1896,410,-3227,-171,313,-594
919,169,246,-3542,1978,688,-3031,-171,313,-594
920,187,211,-3838,2151,953,-2815,-171,313,-594
921,321,81,-4064,2132,1079,-2621,-171,313,-594
922,308,43,-4118,1995,1215,-2441,-171,313,-594
923,263,18,-4039,1904,1457,-2220,-171,313,-594
924,283,149,-3689,1839,1769,-2042,-171,313,-594
925,272,303,-3273,1856,2111,-1948,-171,313,-594
926,73,230,-2963,2046,2750,-1757,-171,313,-594
927,69,99,-2712,2155,3438,-1541,-171,313,-594
928,116,56,-2507,2171,4149,-1337,-171,313,-594
929,220,166,-2384,2208,4926,-1144,-171,313,-594
930,338,400,-2261,2351,5684,-1044,-171,313,-594
931,455,349,-2283,2666,6487,-928,-171,313,-594
932,612,191,-2353,2961,7192,-780,-171,313,-594
933,746,-21,-2501,3174,7768,-595,-171,313,-594
934,924,-178,-2660,3226,8329,-420,-128,261,-632
935,1159,-229,-2802,3269,8766,-230,-128,261,-632
936,1347,-269,-3004,3227,9157,-67,-128,261,-632
937,1694,-180,-3285,3182,9380,69,-128,261,-632
938,1957,-76,-3671,3158,9482,126,-128,261,-632
939,2039,-163,-3967,3043,9537,170,-128,261,-632
940,1976,-229,-4176,2838,9733,181,-128,261,-632
941,2397,-217,-4355,2896,9493,174,-128,261,-632
942,2436,-508,-4578,2839,9194,233,-128,261,-632
943,2910,-850,-4948,2666,7967,478,-128,261,-632
944,2699,-1438,-5207,2155,7241,607,-128,261,-632
945,2753,-1571,-5629,1392,6430,907,-128,261,-632
946,2291,-1821,-6264,264,5811,1214,-128,261,-632
947,2274,-1261,-6385,-142,5613,1532,-128,261,-632
948,2583,-1105,-6441,-166,4851,1748,-128,261,-632
949,2483,-1319,-6468,-453,4142,1947,46,204,-650
950,2458,-1627,-6615,-1388,3579,2153,46,204,-650
951,2354,-1533,-6451,-2042,2976,2492,46,204,-650
952,2438,-1443,-6229,-2154,2277,2816,46,204,-650
953,2186,-1299,-5977,-2032,1850,3027,46,204,-650
954,2127,-1272,-5500,-2345,1888,3310,46,204,-650
955,2102,-820,-5291,-2926,2114,3545,46,204,-650
956,2517,-459,-4591,-3330,1905,3636,46,204,-650
957,2535,13,-4210,-3411,1680,3706,46,204,-650
958,2569,187,-3874,-3388,1424,3779,46,204,-650
959,2713,265,-3619,-3428,1124,3782,46,204,-650
960,2440,520,-3329,-3282,1289,3717,46,204,-650
961,2211,798,-3206,-2936,1975,3616,46,204,-650
962,2285,972,-3086,-2561,2490,3489,46,204,-650
963,2379,1133,-3058,-2309,2938,3276,46,204,-650
964,2591,1364,-3166,-2061,3240,3032,46,204,-650
965,2734,1381,-3193,-1655,3313,2766,113,229,-620
966,2700,1318,-3298,-1065,3349,2440,113,229,-620
967,2711,935,-3444,-455,3266,2192,113,229,-620
968,2610,720,-3451,-115,3296,2012,113,229,-620
969,2801,254,-3728,221,2917,1997,113,229,-620
970,2434,-18,-3880,108,2932,1950,113,229,-620
971,2536,-114,-3961,-149,3036,1880,113,229,-620
972,2636,-68,-3971,-401,3018,1934,113,229,-620
973,2545,-292,-3887,-864,2708,2103,113,229,-620
974,2573,-334,-4072,-1423,2402,2317,113,229,-620
975,2801,-229,-4300,-1880,1770,2455,113,229,-620
976,2583,73,-4447,-2433,1657,2522,113,229,-620
977,2676,326,-4323,-2855,1431,2580,113,229,-620
978,2628,536,-4221,-3209,1210,2578,113,229,-620
979,2695,888,-4266,-3510,955,2529,113,229,-620
980,2761,1242,-4215,-3486,656,2358,113,229,-620
981,2683,1289,-4442,-3338,426,2119,175,245,-602
982,2695,1298,-4442,-3161,80,1879,175,245,-602
983,2590,1064,-4469,-2860,-387,1660,175,245,-602
984,2709,931,-4157,-2588,-790,1506,175,245,-602
985,2570,661,-3980,-2592,-1011,1465,175,245,-602
986,2455,542,-3728,-2601,-1122,1464,175,245,-602
987,2451,466,-3633,-2637,-1212,1484,175,245,-602
988,2603,433,-3714,-2752,-1422,1558,175,245,-602
989,2715,536,-4041,-3044,-1730,1657,175,245,-602
990,2750,658,-4421,-3286,-2195,1691,175,245,-602
991,2881,676,-4762,-3699,-2765,1678,175,245,-602
992,2810,877,-5006,-4012,-3360,1636,175,245,-602
993,2866,896,-5138,-4218,-3995,1516,175,245,-602
994,2783,906,-5155,-4371,-4603,1442,175,245,-602
995,2882,921,-5285,-4514,-5338,1374,175,245,-602
996,2764,943,-5349,-4602,-5834,1254,154,285,-588
997,2727,963,-5186,-4803,-6273,1181,154,285,-588
998,2618,1246,-5112,-4680,-6611,982,154,285,-588
999,2519,1228,-4859,-4599,-6761,727,154,285,-588
1000,2623,1212,-4792,-4554,-6974,561,154,285,-588
1001,2610,1225,-4730,-4336,-7170,434,154,285,-588
1002,2809,1216,-4662,-4458,-7418,364,154,285,-588
1003,2493,1619,-4401,-4419,-6966,163,154,285,-588
1004,2269,1797,-4038,-4418,-6240,-87,154,285,-588
1005,2456,2464,-3885,-4398,-5569,-471,154,285,-588
1006,2223,3748,-3458,-3756,-4431,-1273,154,285,-588
1007,3123,4295,-3260,-3232,-4056,-1975,154,285,-588
1008,3578,4979,-3070,-2196,-4231,-2982,154,285,-588
1009,3485,4956,-2670,-632,-4591,-4053,154,285,-588
1010,3527,4320,-2811,914,-5373,-4822,154,285,-588
1011,3005,2571,-2681,671,-5419,-5237,154,285,-588
1012,2631,2433,-2392,1010,-5495,-5371,154,285,-588
1013,2647,2188,-2001,1572,-5867,-5520,154,285,-588
1014,2461,1491,-1799,1593,-6358,-5543,154,285,-588
1015,2123,1013,-1599,1418,-6536,-5474,154,285,-588
1016,1882,1016,-1366,1382,-6682,-5295,154,285,-588
1017,1632,757,-1389,1441,-6829,-5070,154,285,-588
1018,1270,725,-1683,1019,-6464,-4914,154,285,-588
1019,1044,248,-2099,470,-6036,-4693,154,285,-588
1020,1005,180,-2318,-208,-5750,-4447,154,285,-588
1021,1094,634,-2577,-363,-5560,-4260,154,285,-588
1022,1064,812,-2730,-286,-5489,-4148,154,285,-588
1023,972,1031,-2947,-267,-5330,-4105,154,285,-588
1024,795,1325,-3155,37,-4991,-4097,154,285,-588
1025,918,1801,-3022,371,-4830,-4207,154,285,-588
1026,855,2035,-2946,885,-4616,-4414,154,285,-588
1027,727,1868,-2969,1270,-4197,-4576,-130,362,-584
1028,580,1577,-2943,1495,-3743,-4631,-130,362,-584
1029,311,939,-3035,1423,-3182,-4609,-130,362,-584
1030,270,894,-2801,1271,-2639,-4455,-130,362,-584
1031,144,925,-2513,1331,-2184,-4293,-130,362,-584
1032,91,991,-2425,1446,-1759,-4187,-130,362,-584
1033,-102,1142,-2392,1647,-1017,-4072,-130,362,-584
1034,-3,1019,-2391,1637,-351,-3965,-130,362,-584
1035,186,1349,-2291,1681,60,-3962,-130,362,-584
1036,227,1531,-2550,2030,503,-4048,-130,362,-584
1037,290,1366,-2984,2432,945,-4064,-130,362,-584
1038,381,1155,-3399,2569,1125,-4071,-130,362,-584
1039,457,912,-3722,2554,1234,-4033,-130,362,-584
1040,476,712,-3913,2496,1319,-3922,-130,362,-584
1041,497,752,-3739,2382,1367,-3826,-130,362,-584
1042,417,827,-3404,2323,1565,-3726,-130,362,-584
1043,362,921,-3062,2353,1946,-3658,-183,303,-605
1044,286,1035,-2598,2493,2484,-3626,-183,303,-605
1045,182,982,-2472,2776,3194,-3538,-183,303,-605
1046,199,664,-2366,2933,3902,-3380,-183,303,-605
1047,289,488,-2413,2941,4513,-3194,-183,303,-605
1048,374,478,-2287,3106,5097,-3045,-183,303,-605
1049,341,358,-2360,3299,5740,-2875,-183,303,-605
1050,350,256,-2299,3586,6373,-2703,-183,303,-605
1051,491,-40,-2330,3806,6905,-2485,-183,303,-605
1052,623,-250,-2298,3984,7407,-2269,-183,303,-605
1053,689,-404,-2364,4125,7983,-2008,-183,303,-605
1054,757,-563,-2467,4321,8561,-1742,-183,303,-605
1055,950,-799,-2654,4523,9095,-1477,-183,303,-605
1056,1127,-1069,-2864,4672,9559,-1197,-183,303,-605
1057,1286,-1210,-3136,4737,10001,-923,-183,303,-605
1058,1547,-1374,-3464,4762,10294,-668,-80,210,-649
1059,1736,-1436,-3773,4599,10563,-436,-80,210,-649
1060,2076,-1399,-4012,4471,10625,-217,-80,210,-649
1061,2242,-1430,-4392,4169,10646,-47,-80,210,-649
1062,2620,-1396,-4582,3688,10591,182,-80,210,-649
1063,2649,-1276,-4812,3324,10469,215,-80,210,-649
1064,2732,-1212,-4993,2893,10266,259,-80,210,-649
1065,3215,-1083,-5340,2895,8876,452,-80,210,-649
1066,3080,-1351,-5482,2469,8319,554,-80,210,-649
1067,3807,-1512,-5451,1878,7150,601,-80,210,-649
1068,3133,-1477,-5831,1178,6300,798,-80,210,-649
1069,3042,-1307,-5867,766,5855,794,-80,210,-649
1070,3021,-896,-6041,1210,5331,917,-80,210,-649
1071,2554,-1230,-6116,726,5418,1057,-80,210,-649
1072,2872,-1335,-5993,32,5371,1067,-80,210,-649
1073,3124,-1307,-5945,-208,4697,1213,-80,210,-649
1074,3105,-1327,-5918,-383,3666,1347,88,154,-660
1075,2726,-1623,-5809,-719,3196,1650,88,154,-660
1076,2457,-1341,-5707,-924,3289,1864,88,154,-660
1077,2610,-1294,-5571,-1160,3299,1983,88,154,-660
1078,2676,-1389,-5258,-1541,3264,2010,88,154,-660
1079,2852,-1257,-4944,-1842,3203,2098,88,154,-660
1080,2804,-1061,-4569,-1967,3174,2221,88,154,-660
1081,2869,-910,-4252,-1980,3200,2230,88,154,-660
1082,2904,-953,-3906,-2068,3193,2357,88,154,-660
1083,2956,-920,-3721,-2251,3180,2493,88,154,-660
1084,2989,-857,-3692,-2493,3131,2621,88,154,-660
1085,3357,-130,-3537,-2057,2879,2516,88,154,-660
1086,3158,-182,-3471,-1929,2401,2021,88,154,-660
1087,2871,124,-3857,-1965,2867,2400,88,154,-660
1088,3213,190,-3632,-1802,3250,2180,88,154,-660
1089,3309,187,-3684,-1766,3152,2099,171,164,-635
1090,3256,87,-3704,-1895,3082,2053,171,164,-635
1091,3241,385,-3801,-1736,3047,1903,171,164,-635
1092,3274,282,-3832,-1730,2865,1781,171,164,-635
1093,3215,351,-3821,-1716,2701,1664,171,164,-635
1094,3071,317,-3874,-1743,2630,1549,171,164,-635
1095,2909,93,-3708,-2057,2697,1438,171,164,-635
1096,3329,600,-3564,-1679,2411,1295,171,164,-635
1097,2946,154,-3722,-1633,2455,1150,171,164,-635
1098,2937,309,-3419,-1733,2673,1022,171,164,-635
1099,2940,269,-3254,-1735,2605,908,171,164,-635
1100,2958,305,-3091,-1774,2520,893,171,164,-635
1101,3004,135,-2871,-2013,1780,468,171,164,-635
1102,2453,453,-3193,-2112,1887,1046,171,164,-635
1103,2760,335,-3138,-2186,2127,1012,171,164,-635
1104,2946,465,-3356,-2256,1925,1043,171,164,-635
1105,2957,469,-3559,-2312,1811,1023,225,178,-596
1106,3061,360,-3751,-2322,1564,988,225,178,-596
1107,3112,258,-3767,-2274,1325,944,225,178,-596
1108,3136,167,-3750,-2297,905,1007,225,178,-596
1109,3078,107,-3819,-2422,521,1176,225,178,-596
1110,3032,152,-3866,-2770,178,1342,225,178,-596
1111,3043,304,-3889,-3171,-185,1500,225,178,-596
1112,3077,566,-3811,-3454,-594,1580,225,178,-596
1113,3127,879,-3707,-3596,-990,1602,225,178,-596
1114,3056,880,-3511,-3624,-1312,1537,225,178,-596
1115,3122,901,-3316,-3599,-1712,1526,225,178,-596
1116,2929,847,-3307,-3420,-1904,1509,225,178,-596
1117,2897,603,-3487,-3494,-2102,1492,225,178,-596
1118,2959,646,-3718,-3598,-2411,1464,225,178,-596
1119,3120,677,-4025,-3764,-2913,1478,225,178,-596
1120,3195,627,-4628,-3958,-3677,1544,225,228,-592
1121,3228,602,-5049,-4150,-4542,1587,221,228,-592
1122,3312,556,-5416,-4329,-5490,1589,221,228,-592
1123,3238,534,-5689,-4580,-6337,1584,221,228,-592
1124,3342,669,-5754,-4615,-6965,1511,221,228,-592
1125,3205,585,-5769,-4734,-7586,1479,221,228,-592
1126,3078,526,-5524,-5064,-8069,1436,221,228,-592
1127,3045,655,-5149,-5192,-8369,1283,221,228,-592
1128,2986,776,-4648,-5173,-8431,1103,221,228,-592
1129,3199,608,-4277,-5144,-8486,1095,221,228,-592
1130,2559,640,-3979,-5259,-7926,1220,221,228,-592
1131,2778,740,-3657,-5498,-7338,1113,221,228,-592
1132,2505,870,-2805,-5809,-6609,1045,221,228,-592
1133,2728,1393,-3387,-6011,-6122,942,221,228,-592
1134,3062,1962,-2921,-6192,-5241,484,221,228,-592
1135,3686,2584,-2482,-6132,-5919,51,221,228,-592
1136,3653,3631,-2530,-5851,-6384,-424,118,312,-586
1137,3830,5024,-2271,-4925,-7217,-1335,118,312,-586
1138,3984,4933,-2401,-3857,-8100,-2276,118,312,-586
1139,3438,4180,-2134,-3658,-8030,-3254,118,312,-586
1140,3149,3914,-1876,-2128,-8279,-3942,118,312,-586
1141,2622,3039,-2025,-596,-8464,-4452,118,312,-586
1142,2562,2621,-1777,-39,-8663,-4706,118,312,-586
1143,2332,2070,-1662,-164,-8684,-4954,118,312,-586
1144,2004,1900,-1348,29,-8705,-5228,118,312,-586
1145,1546,909,-1292,-39,-8283,-5338,118,312,-586
1146,1090,17,-1649,598,-7824,-5209,118,312,-586
1147,766,-957,-1865,782,-7319,-4779,118,312,-586
1148,422,-1732,-2126,75,-6772,-4193,118,312,-586
1149,371,-1866,-2172,-768,-6321,-3548,118,312,-586
1150,425,-1094,-2294,-1360,-5968,-2957,118,312,-586
1151,485,-217,-2337,-1526,-5650,-2548,118,355,-577
1152,558,552,-2431,-1450,-5386,-2346,-66,355,-577
1153,618,1336,-2502,-1232,-5047,-2400,-66,355,-577
1154,656,1804,-2822,-828,-4520,-2580,-66,355,-577
1155,631,1958,-3052,-317,-3954,-2703,-66,355,-577
1156,786,1960,-3144,133,-3655,-2853,-66,355,-577
1157,650,1969,-3312,494,-3294,-2965,-66,355,-577
1158,654,2088,-3273,757,-2771,-3067,-66,355,-577
1159,606,2297,-3025,780,-2273,-3302,-66,355,-577
1160,747,2691,-2811,996,-1895,-3624,-66,355,-577
1161,854,2901,-2860,1375,-1613,-3928,-66,355,-577
1162,890,2593,-3363,1772,-1305,-4237,-66,355,-577
1163,889,2028,-3831,1867,-1094,-4411,-66,355,-577
1164,880,1553,-4144,1666,-1011,-4436,-66,355,-577
1165,834,1311,-4160,1397,-944,-4419,-66,355,-577
1166,682,1178,-4095,1196,-817,-4366,-66,355,-577
1167,721,1203,-3863,1126,-721,-4310,-168,348,-585
1168,617,1185,-3736,1046,-580,-4223,-168,348,-585
1169,579,1432,-3430,1000,-438,-4257,-168,348,-585
1170,507,1390,-3387,1186,-175,-4294,-168,348,-585
1171,390,1219,-3346,1434,189,-4283,-168,348,-585
1172,345,886,-3393,1700,478,-4177,-168,348,-585
1173,210,302,-3347,1796,781,-3946,-168,348,-585
1174,36,69,-3276,1789,1175,-3650,-168,348,-585
1175,-102,-13,-2985,1806,1680,-3333,-168,348,-585
1176,-218,-32,-2702,1905,2275,-2988,-168,348,-585
1177,-320,-68,-2441,2055,2959,-2632,-168,348,-585
1178,-306,-131,-2304,2231,3621,-2281,-168,348,-585
1179,-256,-48,-2227,2392,4246,-1964,-168,348,-585
1180,-184,88,-2175,2596,4906,-1723,-168,348,-585
1181,-35,133,-2214,2843,5622,-1475,-168,348,-585
1182,195,258,-2195,3013,6268,-1265,-168,348,-585
1183,305,370,-2286,3159,6947,-1126,-155,291,-617
1184,579,452,-2408,3331,7521,-1000,-155,291,-617
1185,892,714,-2435,3487,8017,-1003,-155,291,-617
1186,1009,753,-2684,3760,8563,-1002,-155,291,-617
1187,1344,828,-2714,3878,8963,-1056,-155,291,-617
1188,1510,904,-2887,3964,9282,-1165,-155,291,-617
1189,1664,821,-3169,4033,9536,-1269,-155,291,-617
1190,1883,682,-3442,4066,9697,-1368,-155,291,-617
1191,2066,552,-3839,4083,9731,-1450,-155,291,-617
1192,2301,321,-4546,3972,9634,-1508,-155,291,-617
1193,2477,138,-5200,3797,9181,-1561,-155,291,-617
1194,2751,-72,-6079,3537,8403,-1562,-155,291,-617
1195,2924,-458,-7262,3155,7267,-1490,-155,291,-617
1196,2834,-674,-7853,2576,6046,-1367,-155,291,-617
1197,2909,-910,-8032,2022,4684,-1206,-155,291,-617
1198,2688,-1128,-7835,1493,3420,-989,-4,209,-651
1199,2524,-1406,-7395,938,2304,-708,-4,209,-651
1200,2294,-1555,-6761,444,1474,-380,-4,209,-651
1201,2087,-1672,-6144,-3,898,-4,-4,209,-651
1202,1919,-1723,-5550,-380,591,382,-4,209,-651
1203,1822,-1740,-4916,-786,409,786,-4,209,-651
1204,1645,-1509,-4463,-1111,560,1145,-4,209,-651
1205,1579,-1343,-4161,-1363,753,1483,-4,209,-651
1206,1600,-1152,-3959,-1520,1015,1736,-4,209,-651
1207,1533,-1069,-4000,-1674,1420,1946,-4,209,-651
1208,1844,-853,-3648,-1707,1830,2099,-4,209,-651
1209,1737,-953,-3720,-1517,1864,2354,-4,209,-651
1210,1572,-1061,-3626,-1485,2275,2572,-4,209,-651
1211,1938,-1173,-3502,-1448,2379,2773,-4,209,-651
1212,1709,-998,-3317,-1592,2952,2972,-4,209,-651
1213,2073,-1131,-3127,-1661,3178,3155,-4,209,-651
1214,2187,-1096,-3093,-2172,3407,3351,35,230,-646
1215,2106,-894,-2908,-3045,3774,3430,35,230,-646
1216,2551,157,-2852,-2978,3989,3555,35,230,-646
1217,2441,442,-3225,-2597,4348,3343,35,230,-646
1218,2746,1036,-3091,-1979,4446,3002,35,230,-646
1219,2980,1191,-3122,-1249,4453,2840,35,230,-646
1220,3614,1803,-3194,-484,3840,2444,35,230,-646
1221,2674,1394,-3502,182,4029,2217,35,230,-646
1222,2834,1037,-3889,407,4400,1843,35,230,-646
1223,2806,820,-3889,436,4856,1665,35,230,-646
1224,2996,656,-3943,812,4929,1541,35,230,-646
1225,3059,407,-4061,941,4907,1500,35,230,-646
1226,3480,265,-3799,967,4451,1700,35,230,-646
1227,2884,343,-4259,897,4671,1576,35,230,-646
1228,2970,317,-4332,841,4652,1645,35,230,-646
1229,3075,308,-4491,613,4457,1672,35,230,-646
1230,3138,218,-4359,312,4192,1662,149,211,-624
1231,3012,169,-4345,23,3812,1761,149,211,-624
1232,3080,132,-4233,-154,3328,1862,149,211,-624
1233,3470,325,-4346,-397,2326,1387,149,211,-624
1234,2338,289,-4270,-702,2597,2048,149,211,-624
1235,2600,371,-3995,-922,2884,2059,149,211,-624
1236,2711,525,-3976,-1176,2766,2052,149,211,-624
1237,2557,339,-3892,-1578,2747,2002,149,211,-624
1238,2931,746,-3712,-1524,2350,1913,149,211,-624
1239,2892,915,-3633,-1427,2159,1739,149,211,-624
1240,2929,823,-3618,-1305,1931,1629,149,211,-624
1241,2785,554,-3576,-1235,1722,1481,149,211,-624
1242,2776,456,-3447,-1253,1560,1402,149,211,-624
1243,2767,249,-3412,-1435,1409,1432,149,211,-624
1244,2774,268,-3398,-1676,1273,1462,149,211,-624
1245,2822,325,-3490,-2055,1154,1506,208,208,-595
1246,3004,560,-3697,-2214,919,1515,208,208,-595
1247,3143,643,-3932,-2323,606,1482,208,208,-595
1248,3300,618,-4252,-2503,199,1440,208,208,-595
1249,3338,662,-4601,-2535,-417,1411,208,208,-595
1250,3288,548,-4928,-2645,-1054,1434,208,208,-595
1251,3400,406,-5119,-2864,-1818,1510,208,208,-595
1252,3458,383,-5166,-3237,-2777,1703,208,208,-595
1253,3398,344,-5263,-3649,-3862,1915,208,208,-595
1254,3375,405,-5416,-4049,-4992,2170,208,208,-595
1255,3367,545,-5654,-4436,-5988,2368,208,208,-595
1256,3154,498,-5699,-4835,-6830,2421,208,208,-595
1257,3214,689,-5704,-5205,-7358,2347,208,208,-595
1258,3178,690,-5389,-5415,-7817,2239,208,208,-595
1259,2952,718,-4755,-5693,-7960,2114,208,208,-595
1260,2654,863,-4235,-5902,-7986,2103,208,208,-595
1261,2465,965,-3953,-5879,-7537,1989,154,272,-599
1262,2545,1031,-3286,-5918,-7229,1960,154,272,-599
1263,2394,1297,-2851,-5790,-6792,1780,154,272,-599
1264,2155,1170,-2365,-5638,-6085,1596,154,272,-599
1265,2368,1249,-2448,-5486,-5645,1457,154,272,-599
1266,2173,1231,-2332,-5288,-5078,1259,154,272,-599
1267,2662,1490,-2365,-5221,-5042,1084,154,272,-599
1268,2965,1923,-2227,-4944,-5747,748,154,272,-599
1269,2666,2329,-2539,-4340,-5833,245,154,272,-599
1270,2457,2293,-2875,-4118,-5511,-299,154,272,-599
1271,2412,2568,-3451,-3861,-5157,-873,154,272,-599
1272,2414,2754,-3744,-3359,-4964,-1279,154,272,-599
1273,2759,2560,-3950,-3275,-4913,-1733,154,272,-599
1274,2849,2839,-3909,-2699,-5502,-2209,154,272,-599
1275,2834,2593,-3854,-2006,-6131,-2667,154,272,-599
1276,2654,2327,-3488,-1425,-6685,-3020,56,347,-586
1277,2351,1765,-2851,-968,-6927,-3236,56,347,-586
1278,1981,1258,-2606,-846,-6835,-3293,56,347,-586
1279,1649,901,-2126,-1231,-6749,-3239,56,347,-586
1280,1507,1372,-1546,-1555,-6615,-3260,56,347,-586
1281,1190,1707,-1400,-1524,-6393,-3337,56,347,-586
1282,1253,1705,-1277,-1317,-6211,-3443,56,347,-586
1283,1143,1732,-1518,-1098,-5899,-3511,56,347,-586
1284,1014,1601,-1886,-1017,-5652,-3606,56,347,-586
1285,1169,1682,-2201,-1074,-5498,-3674,56,347,-586
1286,1192,2032,-2461,-1169,-5280,-3752,56,347,-586
1287,1217,2476,-2559,-1198,-5166,-4016,56,347,-586
1288,1277,2876,-2753,-1138,-5056,-4346,56,347,-586
1289,1411,3277,-2898,-907,-4958,-4769,56,347,-586
1290,1555,3439,-3033,-471,-4934,-5279,56,347,-586
1291,1450,3230,-3279,125,-4844,-5645,56,347,-586
1292,1379,2707,-3391,451,-4765,-5930,-101,377,-567
1293,1052,1935,-3468,578,-4574,-6033,-101,377,-567
1294,675,1236,-3300,421,-4212,-6019,-101,377,-567
1295,698,1143,-2943,286,-3800,-5957,-101,377,-567
1296,408,1004,-2871,732,-3303,-5780,-101,377,-567
1297,309,459,-2853,1162,-2817,-5552,-101,377,-567
1298,38,-94,-3053,1513,-2263,-5148,-101,377,-567
1299,-135,-711,-2979,1621,-1832,-4651,-101,377,-567
1300,-288,-1226,-3206,1729,-1339,-3953,-101,377,-567
1301,-457,-1371,-3286,1750,-733,-3170,-101,377,-567
1302,-331,-1252,-3420,1550,-240,-2471,-101,377,-567
1303,-203,-461,-3493,1418,157,-1932,-101,377,-567
1304,93,509,-3430,1407,395,-1721,-101,377,-567
1305,138,1279,-3687,1755,655,-1748,-101,377,-567
1306,249,1473,-3963,2107,1050,-1823,-101,377,-567
1307,406,1422,-4123,2162,1253,-1961,-193,356,-577
1308,388,1229,-4155,2065,1501,-2016,-193,356,-577
1309,373,1214,-3986,1943,1788,-2041,-193,356,-577
1310,423,1458,-3506,1854,2046,-2130,-193,356,-577
1311,261,1739,-3080,1973,2492,-2294,-193,356,-577
1312,129,1574,-2925,2248,3167,-2336,-193,356,-577
1313,232,1427,-2704,2310,3795,-2357,-193,356,-577
1314,232,1352,-2532,2234,4423,-2393,-193,356,-577
1315,214,1293,-2460,2307,5191,-2372,-193,356,-577
1316,242,1042,-2420,2565,5984,-2282,-193,356,-577
1317,183,568,-2472,2811,6707,-2147,-193,356,-577
1318,415,215,-2440,2953,7275,-1927,-193,356,-577
1319,520,-53,-2495,3140,7770,-1665,-193,356,-577
1320,651,-196,-2579,3283,8206,-1428,-193,356,-577
1321,821,-256,-2614,3452,8704,-1196,-193,356,-577
1322,1059,-267,-2697,3596,9145,-978,-193,356,-577
1323,1434,-135,-3055,3808,9411,-874,-107,282,-628
1324,1759,-200,-3765,3907,9503,-798,-107,282,-628
1325,2149,-268,-4729,3864,9415,-707,-107,282,-628
1326,2461,-251,-5365,3655,8989,-688,-107,282,-628
1327,2589,-336,-5879,3465,8380,-620,-107,282,-628
1328,2686,-476,-6230,3152,7764,-536,-107,282,-628
1329,2705,-603,-6412,2795,6941,-413,-107,282,-628
1330,2534,-641,-6495,2398,6110,-273,-107,282,-628
1331,2363,-700,-6501,1866,5437,-152,-107,282,-628
1332,2291,-570,-6207,1331,4895,-41,-107,282,-628
1333,2113,-594,-5877,1046,4272,120,-107,282,-628
1334,2007,-632,-5550,778,3799,272,-107,282,-628
1335,2106,-633,-5109,601,3014,506,-107,282,-628
1336,1767,-817,-4737,307,2594,730,-107,282,-628
1337,1907,-740,-4347,125,2330,974,-107,282,-628
1338,1572,-743,-4234,-93,2315,1147,9,229,-643
1339,1532,-788,-4106,-307,2526,1358,9,229,-643
1340,1790,-839,-3983,-692,2472,1546,9,229,-643
1341,1744,-915,-3881,-1188,2596,1791,9,229,-643
1342,1858,-1236,-3786,-1581,2550,2072,9,229,-643
1343,1884,-1057,-3837,-1655,2428,2377,9,229,-643
1344,1959,-1311,-3881,-1755,2354,2685,9,229,-643
1345,2231,-1327,-3768,-2259,2173,2967,9,229,-643
1346,2068,-1338,-3628,-2614,2219,3413,9,229,-643
1347,2279,-1082,-3596,-3216,2387,3718,9,229,-643
1348,2002,224,-3400,-3115,2892,4058,9,229,-643
1349,2592,293,-3535,-3052,2917,4007,9,229,-643
1350,2494,433,-3603,-3505,3125,4051,9,229,-643
1351,2824,999,-3677,-3718,3007,3827,9,229,-643
1352,2883,1443,-3677,-2903,2660,3709,9,229,-643
1353,3094,1385,-3910,-2184,2216,3684,9,229,-643
1354,2378,1195,-4080,-1798,2633,3418,82,262,-625
1355,2363,955,-4137,-1538,3048,3252,82,262,-625
1356,2458,746,-4085,-1423,3158,3211,82,262,-625
1357,2491,572,-4155,-1366,3123,3249,82,262,-625
1358,2569,460,-4113,-1392,3141,3240,82,262,-625
1359,2731,463,-4152,-1360,2999,3224,82,262,-625
1360,2852,489,-4074,-1349,2726,3325,82,262,-625
1361,2736,580,-4247,-1302,2581,3263,82,262,-625
1362,2719,681,-4382,-1494,2494,3278,82,262,-625
1363,2742,812,-4324,-1747,2472,3226,82,262,-625
1364,2800,862,-4260,-2072,2263,3218,82,262,-625
1365,2854,929,-4220,-2447,1892,3244,82,262,-625
1366,2888,1118,-4340,-2685,1436,3285,82,262,-625
1367,2903,1256,-4543,-2643,971,3186,82,262,-625
1368,2826,1266,-4663,-2598,595,2927,82,262,-625
1369,2796,1175,-4644,-2436,208,2757,82,262,-625
1370,2660,755,-4651,-2376,-284,2667,163,263,-594
1371,2792,517,-4543,-2490,-804,2712,163,263,-594
1372,2758,316,-4548,-2908,-1267,2886,163,263,-594
1373,2780,349,-4613,-3690,-1732,3071,163,263,-594
1374,2764,742,-4728,-4368,-2143,3153,163,263,-594
1375,2828,1063,-4818,-4813,-2586,3080,163,263,-594
1376,2952,1457,-4898,-5005,-3088,2860,163,263,-594
1377,2927,1600,-5029,-4884,-3675,2648,163,263,-594
1378,2979,1644,-5167,-4705,-4391,2365,163,263,-594
1379,2862,1501,-5243,-4667,-4947,2120,163,263,-594
1380,2813,1284,-5400,-4766,-5466,1942,163,263,-594
1381,2685,1281,-5329,-4810,-5929,1788,163,263,-594
1382,2664,1341,-5145,-4970,-6168,1600,163,263,-594
1383,2641,1445,-4855,-4978,-6339,1379,163,263,-594
1384,2678,1598,-4428,-4841,-6241,1134,163,263,-594
1385,2333,1729,-3883,-4733,-5782,751,120,321,-574
1386,2453,1620,-3483,-4529,-5219,516,120,321,-574
1387,2331,1523,-3435,-4358,-4876,423,120,321,-574
1388,2250,1772,-3068,-4222,-3699,265,120,321,-574
1389,2484,2102,-2986,-4039,-3330,9,120,321,-574
1390,2901,2152,-2626,-4283,-3497,-84,120,321,-574
1391,2939,2833,-2208,-4388,-4027,-287,120,321,-574
1392,3026,3597,-1683,-4717,-4561,-507,120,321,-574
1393,2994,4669,-1416,-4674,-5079,-1178,120,321,-574
1394,2657,5671,-1214,-3384,-5228,-2199,120,321,-574
1395,2605,5880,-1177,-1386,-5394,-3345,120,321,-574
1396,1916,4492,-1748,-390,-4585,-4123,120,321,-574
1397,2035,3881,-1899,939,-4152,-4605,120,321,-574
1398,1987,2744,-2631,2059,-3916,-4887,120,321,-574
1399,1817,1966,-3181,2272,-3809,-5106,120,321,-574
1400,1985,2146,-3272,2383,-3664,-5178,120,321,-574
1401,2005,2028,-3328,2460,-3709,-5261,15,380,-568
1402,1984,1749,-3007,2778,-3986,-5426,15,380,-568
1403,1920,785,-2761,2790,-4303,-5323,15,380,-568
1404,1590,145,-2447,2389,-4318,-5070,15,380,-568
1405,1165,-318,-2253,2013,-4192,-4669,15,380,-568
1406,998,-811,-2043,1168,-4057,-4187,15,380,-568
1407,773,-595,-1976,228,-3638,-3712,15,380,-568
1408,779,102,-2052,-279,-3250,-3350,15,380,-568
1409,820,1090,-2028,-456,-2938,-3163,15,380,-568
1410,975,1989,-2079,-211,-2619,-3335,15,380,-568
1411,1089,2455,-2205,404,-2473,-3545,15,380,-568
1412,1030,2474,-2664,1200,-2130,-3782,15,380,-568
1413,867,1978,-3003,1826,-1584,-3922,15,380,-568
1414,817,1604,-3063,1989,-1120,-3963,15,380,-568
1415,844,1493,-2912,1956,-792,-3891,15,380,-568
1416,812,1592,-2781,1879,-483,-3882,-90,359,-586
1417,834,1949,-2709,1860,-253,-3914,-90,359,-586
1418,849,2307,-2733,2234,-6,-4035,-90,359,-586
1419,1043,2385,-2838,2592,136,-4203,-90,359,-586
1420,1171,2034,-2997,2637,298,-4406,-90,359,-586
1421,1004,1776,-3326,3005,569,-4500,-90,359,-586
1422,868,1129,-3541,3185,935,-4426,-90,359,-586
1423,899,617,-3530,3022,1190,-4241,-90,359,-586
1424,893,438,-3385,2820,1465,-4012,-90,359,-586
1425,869,535,-3342,2607,1765,-3839,-90,359,-586
1426,939,864,-3253,2608,2040,-3709,-90,359,-586
1427,1026,1161,-3099,2810,2243,-3758,-90,359,-586
1428,998,1140,-3162,3208,2590,-3784,-90,359,-586
1429,919,722,-3373,3643,3001,-3737,-90,359,-586
1430,987,287,-3365,3906,3276,-3657,-90,359,-586
1431,935,-399,-3542,4081,3573,-3414,-90,359,-586
1432,801,-1005,-3910,4216,3981,-2991,-105,290,-615
1433,791,-1686,-4236,4061,4232,-2475,-105,290,-615
1434,888,-1838,-4432,3631,4331,-1919,-105,290,-615
1435,933,-1616,-4475,3145,4409,-1447,-105,290,-615
1436,1127,-1097,-4368,2774,4479,-1072,-105,290,-615
1437,1285,-515,-4059,2538,4559,-890,-105,290,-615
1438,1347,-122,-3838,2607,4706,-803,-105,290,-615
1439,1323,-30,-3667,2827,5020,-733,-105,290,-615
1440,1369,4,-3306,2986,5380,-661,-105,290,-615
1441,1313,-79,-3196,3212,5871,-573,-105,290,-615
1442,1380,-395,-3022,3373,6366,-428,-105,290,-615
1443,1101,-607,-3104,3680,7312,-214,-105,290,-615
1444,1178,-915,-2999,3996,8197,75,-105,290,-615
1445,1420,-950,-2908,4156,8834,353,-105,290,-615
1446,1781,-928,-3015,4249,9119,655,-105,290,-615
1447,1963,-946,-3198,4250,9194,872,-105,290,-615
1448,2208,-1120,-3593,4210,9078,1084,-105,290,-615
1449,2361,-1209,-3915,4012,8969,1333,-105,290,-615
1450,2606,-1294,-4278,3628,8668,1494,-105,290,-615
1451,3117,-1263,-4237,3080,7814,1620,-105,290,-615
1452,3202,-1211,-4680,2992,6437,1869,-105,290,-615
1453,3073,-1620,-4729,2431,5729,1957,-105,290,-615
1454,3389,-1941,-4876,2071,4636,2065,-105,290,-615
1455,3002,-2038,-4977,1831,4061,2227,-105,290,-615
1456,2815,-1998,-5057,1270,4149,2330,-105,290,-615
1457,2742,-1846,-5382,552,4550,2616,-105,290,-615
1458,2784,-1559,-5535,-91,5103,2595,-105,290,-615
1459,3193,-1682,-5467,-886,5068,2646,-105,290,-615
1460,3407,-1375,-5401,-1182,4513,2669,-105,290,-615
1461,3315,-1448,-5393,-1405,3924,2818,-105,290,-615
1462,2994,-1494,-5361,-1828,3688,3019,-105,290,-615
1463,2811,-1152,-5014,-2082,3388,2896,144,165,-642
1464,3055,-1119,-4872,-2288,3133,3433,144,165,-642
1465,3024,-486,-4892,-2621,3219,3326,144,165,-642
1466,3043,-116,-4671,-3132,3006,3350,144,165,-642
1467,3066,187,-4546,-3624,2805,3333,144,165,-642
1468,3200,574,-4334,-3838,2428,3245,144,165,-642
1469,3072,1045,-4118,-3738,2100,3094,144,165,-642
1470,3086,1265,-3962,-3492,1698,2871,144,165,-642
1471,2980,1463,-3825,-3154,1313,2621,144,165,-642
1472,2779,1293,-3565,-2881,825,2549,144,165,-642
1473,2588,1381,-3343,-2705,1257,2193,144,165,-642
1474,2806,1303,-3171,-2220,1198,1938,144,165,-642
1475,2613,856,-3020,-1865,1144,1728,144,165,-642
1476,2643,467,-2905,-1629,1116,1621,144,165,-642
1477,2701,204,-2861,-1419,990,1619,144,165,-642
1478,2714,-144,-2826,-1489,869,1646,192,189,-606
1479,2535,-375,-3147,-1933,958,1793,192,189,-606
1480,2586,-433,-3275,-2462,1005,1828,192,189,-606
1481,3084,107,-3635,-2665,797,1811,192,189,-606
1482,3118,170,-4082,-3105,556,1821,192,189,-606
1483,3260,427,-4414,-3534,87,1827,192,189,-606
1484,3256,449,-4866,-3796,-540,1834,192,189,-606
1485,3329,519,-5071,-3977,-1281,1846,192,189,-606
1486,3553,470,-5218,-4284,-2284,1976,192,189,-606
1487,3399,547,-5259,-4546,-3294,2114,192,189,-606
1488,3237,545,-5215,-4747,-3950,2165,192,189,-606
1489,3066,623,-5171,-4774,-4418,2112,192,189,-606
1490,3035,616,-5141,-4626,-4840,2042,192,189,-606
1491,2987,580,-5106,-4437,-5161,1853,192,189,-606
1492,2821,536,-4977,-4403,-5227,1714,192,189,-606
1493,2811,394,-4938,-4565,-5441,1679,192,189,-606
1494,2819,500,-5037,-4626,-5663,1608,165,255,-606
1495,2901,540,-4989,-4950,-5912,1710,165,255,-606
1496,2634,714,-4987,-5176,-5815,1573,165,255,-606
1497,2900,1100,-4724,-5196,-5525,1535,165,255,-606
1498,2643,1117,-4641,-5211,-5133,1350,165,255,-606
1499,2733,1269,-4147,-5186,-4446,1173,165,255,-606
1500,3027,1704,-3446,-5126,-4069,1120,165,255,-606
1501,3234,1995,-2633,-5125,-4177,1030,165,255,-606
1502,3353,2479,-1904,-5032,-4647,729,165,255,-606
1503,3321,3039,-1389,-4518,-5700,376,165,255,-606
1504,2927,3312,-1439,-3639,-6410,-75,165,255,-606
1505,2360,3371,-1500,-2751,-5999,-549,165,255,-606
1506,2028,3342,-1726,-2201,-5330,-1009,165,255,-606
1507,2217,3330,-1714,-1600,-4772,-1506,165,255,-606
1508,2160,3342,-1887,-944,-4501,-1923,165,255,-606
1509,2063,3135,-1968,-112,-4434,-2328,86,315,-597
1510,2100,2916,-2268,969,-4515,-2631,86,315,-597
1511,1912,2442,-2501,1817,-4649,-2834,86,315,-597
1512,1844,1358,-2817,1996,-4617,-2994,86,315,-597
1513,1857,739,-2995,2072,-4648,-2947,86,315,-597
1514,1715,312,-3194,2168,-4682,-2753,86,315,-597
1515,1546,-281,-3331,1819,-4767,-2554,86,315,-597
1516,1487,-350,-3146,1256,-4711,-2250,86,315,-597
1517,1428,-89,-2715,629,-4663,-2075,86,315,-597
1518,1257,184,-2435,163,-4492,-1997,86,315,-597
1519,1181,405,-2181,-138,-4264,-1979,86,315,-597
1520,980,793,-2124,-270,-3939,-1892,86,315,-597
1521,971,1162,-2067,-373,-3649,-1921,86,315,-597
1522,1048,1659,-2096,-326,-3359,-2046,86,315,-597
1523,979,1979,-2377,179,-2995,-2267,86,315,-597
1524,1035,1919,-2845,770,-2583,-2435,86,315,-597
1525,1140,1840,-3229,1181,-2292,-2539,-22,309,-610
1526,1229,2015,-3227,1301,-2238,-2692,-22,309,-610
1527,1352,2600,-2809,1314,-2336,-2938,-22,309,-610
1528,1208,3190,-2551,1692,-2287,-3324,-22,309,-610
1529,1128,3385,-2342,2353,-2026,-3765,-22,309,-610
1530,1035,3154,-2266,3053,-1603,-4171,-22,309,-610
1531,883,2425,-2515,3443,-1077,-4444,-22,309,-610
1532,1028,1467,-2541,3163,-640,-4553,-22,309,-610
1533,1076,1271,-2669,3040,-534,-4544,-22,309,-610
1534,1088,1140,-2980,3003,-423,-4546,-22,309,-610
1535,1134,1093,-3124,2862,-348,-4536,-22,309,-610
1536,1236,1327,-2956,2775,-370,-4660,-22,309,-610
1537,1178,1627,-2912,3109,-195,-4812,-22,309,-610
1538,1081,847,-2872,3425,110,-4924,-22,309,-610
1539,807,40,-3087,3752,617,-4793,-22,309,-610
1540,691,-778,-3228,3861,1145,-4477,-22,266,-610
1541,710,-1391,-3333,3649,1531,-4031,-93,266,-636
1542,608,-1829,-3540,3402,1971,-3518,-93,266,-636
1543,570,-1898,-3785,3305,2392,-2956,-93,266,-636
1544,677,-1993,-3868,3225,2788,-2428,-93,266,-636
1545,844,-1929,-3946,2981,3055,-1924,-93,266,-636
1546,899,-1761,-4059,2761,3264,-1456,-93,266,-636
1547,1037,-1347,-4007,2474,3507,-1083,-93,266,-636
1548,1164,-801,-3714,2330,3747,-909,-93,266,-636
1549,1226,-251,-3500,2419,4127,-825,-93,266,-636
1550,1233,11,-3388,2664,4596,-784,-93,266,-636
1551,1275,117,-3286,2871,5083,-769,-93,266,-636
1552,1422,324,-3100,3062,5498,-863,-93,266,-636
1553,1472,465,-3022,3276,5984,-968,-93,266,-636
1554,1432,423,-3115,3567,6696,-1049,-93,266,-636
1555,1616,373,-3096,3904,7216,-1107,-93,266,-636
1556,1856,153,-3151,3942,7527,-1032,-15,189,-668
1557,1755,-10,-3262,3913,7946,-1123,-15,189,-668
1558,1901,-143,-3316,4046,8264,-1086,-15,189,-668
1559,2130,-415,-3343,4245,8320,-1011,-15,189,-668
1560,2095,-793,-3410,4350,8439,-929,-15,189,-668
1561,2225,-1149,-3477,4441,8371,-755,-15,189,-668
1562,2365,-1528,-3560,4484,8248,-616,-15,189,-668
1563,2834,-1844,-3542,4464,7737,-282,-15,189,-668
1564,2711,-2232,-3773,4242,7266,-98,-15,189,-668
1565,2794,-2601,-4041,3968,6221,521,-15,189,-668
1566,2998,-2674,-4251,3528,5804,778,-15,189,-668
1567,3107,-2701,-4211,3222,5410,1057,-15,189,-668
1568,2935,-2693,-4560,3019,5125,1262,-15,189,-668
1569,2695,-2678,-4812,2951,5684,1508,-15,189,-668
1570,3227,-2937,-5055,2282,5694,1723,-15,189,-668
1571,3200,-2763,-5293,1598,5775,1810,-15,189,-668
1572,3535,-2982,-5311,767,5560,1929,132,100,-652
1573,3735,-3023,-5626,-54,4957,2323,132,100,-652
1574,3208,-2583,-6004,-601,5022,2437,132,100,-652
1575,3612,-2171,-6059,-542,4274,2571,132,100,-652
1576,3325,-2197,-6278,-1427,3841,2692,132,100,-652
1577,4090,-1944,-6054,-2632,2614,2681,132,100,-652
1578,3055,-1537,-6213,-3824,2779,2911,132,100,-652
1579,3395,-1088,-5760,-4518,2372,2973,132,100,-652
1580,3524,-230,-5391,-4252,1426,2865,132,100,-652
1581,3294,-351,-5134,-4318,925,2882,132,100,-652
1582,3255,-346,-4648,-4562,486,2802,132,100,-652
1583,3154,-167,-4145,-4419,153,2727,132,100,-652
1584,2846,-207,-3738,-4307,95,2700,132,100,-652
1585,2709,-145,-3440,-4267,334,2660,132,100,-652
1586,2825,0,-3081,-4217,482,2584,132,100,-652
1587,2784,196,-2854,-4053,657,2460,185,137,-638
1588,2831,178,-2757,-3862,651,2389,185,137,-638
1589,2753,174,-2705,-3872,676,2395,185,137,-638
1590,2971,521,-2684,-3732,637,2331,185,137,-638
1591,2904,668,-2830,-3634,624,2271,185,137,-638
1592,2829,591,-3014,-3628,776,2128,185,137,-638
1593,3072,773,-2966,-3412,816,1859,185,137,-638
1594,2537,352,-3132,-3266,897,1646,185,137,-638
1595,2860,498,-3298,-2916,830,1433,185,137,-638
1596,3101,415,-3441,-2622,557,1261,185,137,-638
1597,2854,46,-3698,-2783,425,1290,185,137,-638
1598,2881,65,-3807,-2950,295,1227,185,137,-638
1599,2955,116,-3956,-3104,54,1131,185,137,-638
1600,2891,57,-4047,-3341,-158,1113,185,137,-638
1601,2949,-14,-4148,-3479,-507,1127,185,137,-638
1602,2889,-14,-4385,-3543,-909,1210,185,137,-638
1603,3106,-204,-4720,-3711,-1504,1317,207,181,-614
1604,3261,-74,-4903,-3898,-2269,1498,207,181,-614
1605,3192,-104,-5208,-4247,-3006,1680,207,181,-614
1606,3261,41,-5499,-4684,-3831,1825,207,181,-614
1607,3274,148,-5728,-4951,-4554,1886,207,181,-614
1608,3189,235,-5924,-5115,-5222,1861,207,181,-614
1609,3241,227,-6072,-5206,-5794,1798,207,181,-614
1610,3308,270,-5931,-5288,-6579,1831,207,181,-614
1611,3016,395,-5717,-5387,-6936,1722,207,181,-614
1612,3137,716,-5302,-5489,-7214,1700,207,181,-614
1613,3138,837,-4449,-5691,-7308,1554,207,181,-614
1614,2883,1078,-3726,-5648,-6986,1551,207,181,-614
1615,2470,947,-3133,-5674,-6239,1369,207,181,-614
1616,2108,1259,-2137,-5303,-4868,1103,207,181,-614
1617,2481,1606,-1747,-4776,-4492,1087,207,181,-614
1618,1559,1977,-1858,-4356,-3430,865,128,262,-600
1619,2809,2640,-1622,-3833,-3352,581,128,262,-600
1620,3169,2847,-1402,-3665,-4279,79,128,262,-600
1621,2780,3430,-1852,-2901,-4528,-493,128,262,-600
1622,2596,3701,-2070,-2075,-4600,-1070,128,262,-600
1623,2400,3550,-2475,-1236,-4450,-1673,128,262,-600
1624,2414,3122,-2749,-296,-4193,-2149,128,262,-600
1625,2272,2482,-3233,406,-3959,-2557,128,262,-600
1626,2497,1801,-3641,995,-4115,-2795,128,262,-600
1627,2284,1174,-3693,1280,-4249,-2844,128,262,-600
1628,2247,927,-3491,1387,-4490,-2816,128,262,-600
1629,2019,790,-3046,1242,-4729,-2702,128,262,-600
1630,1978,884,-2633,1071,-5016,-2738,128,262,-600
1631,1817,625,-2389,834,-5147,-2647,128,262,-600
1632,1540,499,-2396,593,-5221,-2532,128,262,-600
1633,1491,432,-2418,345,-5339,-2472,128,262,-600
1634,1224,499,-2475,-19,-5271,-2344,18,292,-626
1635,1242,667,-2357,-468,-5279,-2347,18,292,-626
1636,1202,1100,-2262,-677,-5326,-2395,18,292,-626
1637,1092,1406,-2294,-548,-5189,-2521,18,292,-626
1638,1053,1687,-2453,-206,-4907,-2691,18,292,-626
1639,1085,1784,-2563,236,-4603,-2929,18,292,-626
1640,1018,1613,-2842,648,-4267,-3108,18,292,-626
1641,1017,1485,-3078,828,-3954,-3277,18,292,-626
1642,1031,1447,-3184,830,-3693,-3416,18,292,-626
1643,1031,1512,-3172,843,-3395,-3563,18,292,-626
1644,795,1513,-3049,841,-3134,-3719,18,292,-626
1645,1001,1799,-2636,915,-2904,-3916,18,292,-626
1646,867,1792,-2580,1444,-2583,-4144,18,292,-626
1647,680,1385,-2572,1874,-2072,-4246,18,292,-626
1648,624,963,-2565,2039,-1594,-4269,18,292,-626
1649,475,593,-2673,2076,-1049,-4194,18,292,-626
1650,504,292,-2788,1965,-540,-4037,18,292,-626
1651,662,429,-2861,1932,-187,-3924,18,292,-626
1652,747,450,-3121,2030,105,-3815,18,292,-626
1653,856,567,-3417,2057,315,-3717,18,292,-626
1654,857,560,-3579,2196,474,-3660,18,292,-626
1655,823,466,-3618,2370,722,-3570,18,292,-626
1656,782,458,-3323,2453,999,-3480,18,292,-626
1657,667,401,-3032,2694,1394,-3397,18,292,-626
1658,518,126,-2870,2989,1961,-3233,18,292,-626
1659,423,-253,-2820,3344,2580,-3006,18,292,-626
1660,385,-605,-2801,3568,3236,-2702,18,292,-626
1661,495,-749,-2928,3579,3777,-2340,18,292,-626
1662,665,-679,-2996,3519,4142,-2093,18,292,-626
1663,836,-586,-3300,3473,4551,-1869,18,292,-626
1664,996,-360,-3476,3524,4900,-1677,18,292,-626
1665,1158,-195,-3596,3589,5141,-1617,-75,210,-651
1666,1237,-165,-3653,3673,5380,-1564,-75,210,-651
1667,1346,-238,-3685,3723,5572,-1496,-75,210,-651
1668,1392,-276,-3624,3720,5766,-1447,-75,210,-651
1669,1438,-252,-3665,3738,6022,-1410,-75,210,-651
1670,1541,-236,-3778,3758,6260,-1441,-75,210,-651
1671,1783,-153,-3902,3831,6384,-1485,-75,210,-651
1672,1880,-227,-4114,3829,6463,-1491,-75,210,-651
1673,2129,-265,-4210,3783,6322,-1538,-75,210,-651
1674,2151,-367,-4339,3719,6182,-1539,-75,210,-651
1675,2374,-564,-4477,3611,5951,-1478,-75,210,-651
1676,2286,-794,-4481,3513,5674,-1456,-75,210,-651
1677,2112,-1131,-4606,3380,5681,-1347,-75,210,-651
1678,2238,-1436,-4552,3345,5552,-1177,-75,210,-651
1679,2209,-1639,-4501,3204,5370,-960,-75,210,-651
1680,2199,-1746,-4522,2862,5232,-755,-75,210,-651
1681,2239,-1707,-4412,2592,5098,-563,34,138,-673
1682,2270,-1722,-4359,2351,5002,-395,34,138,-673
1683,2315,-1744,-4317,2205,4904,-246,34,138,-673
1684,2461,-1826,-4308,2066,4773,-40,34,138,-673
1685,2438,-1839,-4362,1908,4567,170,34,138,-673
1686,2684,-1794,-4041,1665,4115,332,34,138,-673
1687,2529,-1510,-4278,1561,3490,672,34,138,-673
1688,2398,-1395,-4437,1301,3359,745,34,138,-673
1689,2777,-1236,-4509,1214,2916,728,34,138,-673
1690,2356,-1187,-4555,1281,3215,771,34,138,-673
1691,2477,-1062,-4591,1372,3563,662,34,138,-673
1692,2627,-1257,-4504,1338,3633,827,34,138,-673
1693,2495,-1194,-4563,1181,3872,726,34,138,-673
1694,2801,-1306,-4638,997,3647,765,34,138,-673
1695,2816,-1336,-4483,799,3326,834,34,138,-673
1696,2742,-1475,-4511,451,3100,991,34,138,-673
1697,2669,-1348,-4564,145,3055,1037,126,88,-660
1698,2805,-1272,-4472,-272,2672,799,126,88,-660
1699,2880,-1542,-4446,-766,2587,1247,126,88,-660
1700,2515,-1396,-4530,-1307,3127,1184,126,88,-660
1701,2859,-1031,-4382,-1450,3211,1179,126,88,-660
1702,3061,-804,-4256,-1296,2959,1132,126,88,-660
1703,3198,-1162,-4235,-1414,2278,1019,126,88,-660
1704,3177,-1325,-4232,-1878,1697,1092,126,88,-660
1705,2603,-946,-4373,-2102,2189,1251,126,88,-660
1706,2977,-827,-4291,-1969,2248,1255,126,88,-660
1707,2980,-901,-4252,-2061,2106,1312,126,88,-660
1708,3105,-850,-4109,-2246,1907,1338,126,88,-660
1709,3205,-692,-3886,-2241,1461,1428,126,88,-660
1710,3030,-691,-3831,-2302,1153,1520,126,88,-660
1711,2977,-589,-3769,-2400,1049,1554,126,88,-660
1712,2828,-439,-3641,-2581,992,1597,171,108,-640
1713,2872,-314,-3529,-2685,1030,1610,171,108,-640
1714,2833,-204,-3475,-2741,1049,1589,171,108,-640
1715,2792,-52,-3463,-2693,1058,1581,171,108,-640
1716,2835,14,-3481,-2569,1062,1554,171,108,-640
1717,2850,126,-3489,-2412,1045,1514,171,108,-640
1718,2869,79,-3503,-2285,998,1473,171,108,-640
1719,2902,79,-3500,-2249,930,1434,171,108,-640
1720,2911,92,-3534,-2228,794,1408,171,108,-640
1721,2898,113,-3543,-2242,716,1380,171,108,-640
1722,2787,99,-3595,-2365,739,1341,171,108,-640
1723,2968,407,-3510,-2259,657,1251,171,108,-640
1724,2983,464,-3552,-2249,647,1133,171,108,-640
1725,2953,600,-3527,-2196,605,987,171,108,-640
1726,2928,566,-3545,-2054,493,854,171,108,-640
1727,2883,492,-3588,-1905,397,745,171,108,-640
1728,2885,407,-3593,-1775,214,707,187,147,-631
1729,2865,261,-3708,-1669,4,686,187,147,-631
1730,2882,101,-3887,-1625,-177,667,187,147,-631
1731,2882,-5,-4149,-1605,-410,676,187,147,-631
1732,2973,-79,-4340,-1605,-747,732,187,147,-631
1733,3071,-253,-4629,-1626,-1261,819,187,147,-631
1734,3092,-491,-5152,-1691,-1882,953,187,147,-631
1735,3189,-709,-5623,-1866,-2512,1085,187,147,-631
1736,3363,-811,-5968,-2195,-3263,1273,187,147,-631
1737,3438,-827,-6070,-2710,-4006,1453,187,147,-631
1738,3356,-656,-5899,-3347,-4517,1597,187,147,-631
1739,3303,-333,-5497,-3853,-4788,1609,187,147,-631
1740,3226,16,-4923,-4195,-4928,1567,187,147,-631
1741,2958,451,-4022,-4434,-4803,1414,187,147,-631
1742,2726,738,-3236,-4494,-4490,1202,187,147,-631
1743,2235,1020,-2566,-4200,-4037,1121,187,147,-631
1744,1814,1268,-2039,-3802,-3731,959,154,187,-632
1745,1928,1521,-1814,-3241,-3340,744,154,187,-632
1746,1883,1484,-1741,-2739,-2770,505,154,187,-632
1747,2183,1567,-1774,-2432,-2527,341,154,187,-632
1748,1706,1526,-1670,-2311,-1959,167,154,187,-632
1749,1754,1521,-1824,-1724,-1476,-53,154,187,-632
1750,1853,1450,-1970,-968,-1228,-144,154,187,-632
1751,2044,1274,-2159,-478,-1188,-186,154,187,-632
1752,2181,1023,-2335,-298,-1447,-156,154,187,-632
1753,2066,1055,-2475,-402,-1800,-126,154,187,-632
1754,1920,1290,-2752,-580,-1760,-217,154,187,-632
1755,2070,1570,-3194,-564,-1883,-283,154,187,-632
1756,2245,1578,-3870,-602,-2055,-300,154,187,-632
1757,2491,1540,-4548,-746,-2173,-418,154,187,-632
1758,2934,1511,-4848,-958,-2786,-501,154,187,-632
1759,3055,1605,-4748,-1298,-3548,-530,113,215,-629
1760,3200,1908,-4298,-1245,-4370,-779,113,215,-629
1761,2985,1980,-3615,-783,-5051,-1082,113,215,-629
1762,2487,1566,-2931,-308,-5384,-1372,113,215,-629
1763,2109,853,-2282,68,-5861,-1461,113,215,-629
1764,1773,288,-1895,473,-6176,-1403,113,215,-629
1765,1204,-407,-1860,401,-5991,-1246,113,215,-629
1766,907,-533,-1919,129,-5341,-1088,113,215,-629
1767,893,-542,-2063,-141,-4666,-943,113,215,-629
1768,915,-595,-2123,-454,-4141,-792,113,215,-629
1769,1149,-669,-2194,-793,-3945,-605,113,215,-629
1770,1180,-619,-2473,-1154,-3932,-409,113,215,-629
1771,1104,-536,-2889,-1489,-3856,-228,113,215,-629
1772,1097,-517,-3246,-1800,-3727,-99,113,215,-629
1773,1186,-492,-3348,-2083,-3644,75,113,215,-629
1774,1255,-391,-3511,-2307,-3480,235,113,215,-629
1775,1302,-202,-3581,-2597,-3339,364,7,246,-642
1776,1269,160,-3720,-2860,-2984,388,7,246,-642
1777,1299,591,-3670,-2957,-2629,325,7,246,-642
1778,1386,763,-3549,-2856,-2436,256,7,246,-642
1779,1504,809,-3470,-2622,-2374,202,7,246,-642
1780,1560,733,-3348,-2528,-2430,194,7,246,-642
1781,1454,819,-3521,-2564,-2347,179,7,246,-642
1782,1306,960,-3691,-2543,-1976,100,7,246,-642
1783,1277,1070,-3784,-2337,-1518,-29,7,246,-642
1784,1400,913,-3620,-2002,-1290,-84,7,246,-642
1785,1422,725,-3778,-1719,-1193,-48,7,246,-642
1786,1337,652,-3999,-1492,-954,-27,7,246,-642
1787,1226,721,-4171,-1330,-521,-24,7,246,-642
1788,1251,737,-4256,-1213,-32,-81,7,246,-642
1789,1407,1116,-4366,-1016,404,-152,7,246,-642
1790,1463,1346,-4440,-639,756,-343,7,246,-642
1791,1522,1413,-4469,-117,959,-572,-18,281,-625
1792,1488,1146,-4163,506,1097,-751,-18,281,-625
1793,1393,529,-3630,893,1050,-659,-18,281,-625
1794,1288,542,-3763,1010,1198,-517,-18,281,-625
1795,1352,1176,-4212,883,1497,-718,-18,281,-625
1796,1383,1400,-4008,1002,1577,-1067,-18,281,-625
1797,1401,1235,-3790,1336,1357,-1186,-18,281,-625
1798,1592,1346,-3642,1845,1032,-1240,-18,281,-625
1799,1937,1167,-3203,1939,433,-1383,-18,281,-625
1800,1624,934,-3062,1600,-12,-1483,-18,281,-625
1801,1328,813,-2881,1343,68,-1524,-18,281,-625
1802,1124,822,-2804,1165,454,-1579,-18,281,-625
1803,1087,914,-3001,1328,963,-1604,-18,281,-625
1804,1247,802,-3142,1663,1289,-1645,-18,281,-625
1805,1580,639,-3308,1898,1213,-1593,-18,281,-625
1806,1620,597,-3855,2128,1020,-1613,-18,253,-633
1807,1636,380,-4530,2289,963,-1701,-18,253,-633
1808,1744,227,-4785,2336,877,-1799,-18,253,-633
1809,1868,-46,-5013,2315,658,-1834,-18,253,-633
1810,1823,-310,-5117,2113,420,-1842,-18,253,-633
1811,1708,-472,-5062,1831,235,-1780,-18,253,-633
1812,1572,-553,-4990,1526,184,-1629,-18,253,-633
1813,1510,-640,-4832,1249,177,-1452,-18,253,-633
1814,1374,-794,-4544,936,233,-1254,-18,253,-633
1815,1410,-872,-4366,484,257,-1041,-18,253,-633
1816,1171,-780,-4063,98,533,-795,-18,253,-633
1817,1129,-710,-4026,-75,836,-583,-18,253,-633
1818,1038,-610,-3993,-179,1220,-414,-18,253,-633
1819,1196,-561,-3886,-249,1556,-267,-18,253,-633
1820,1334,-440,-3916,-137,1640,-124,-18,253,-633
1821,1266,-318,-4312,11,1683,20,-18,253,-633
1822,1301,-180,-4468,108,1767,106,-18,241,-648
1823,1380,-34,-4488,162,1828,164,-18,241,-648
1824,1410,104,-4393,182,1885,188,-18,241,-648
1825,1623,89,-4177,138,1816,147,-18,241,-648
1826,1690,128,-4161,166,1664,162,-18,241,-648
1827,1572,163,-4167,243,1749,181,-18,241,-648
1828,1601,75,-4155,366,1860,193,-18,241,-648
1829,1589,-18,-4126,377,1819,255,-18,241,-648
1830,1598,-82,-4173,324,1906,332,-18,241,-648
1831,1688,-241,-4268,232,1961,403,-18,241,-648
1832,1728,-332,-4349,205,1825,533,-18,241,-648
1833,1651,-439,-4428,167,2012,639,-18,241,-648
1834,1815,-428,-4442,125,2055,749,-18,241,-648
1835,1653,-429,-4584,90,2108,843,-18,241,-648
1836,1789,-385,-4753,3,2157,952,-18,241,-648
1837,1939,-421,-4873,-149,1966,1019,-18,241,-648
1838,1920,-418,-4891,-354,1785,1086,32,225,-646
1839,1939,-227,-4597,-477,1707,1117,32,225,-646
1840,1928,-33,-4233,-510,1734,1133,32,225,-646
1841,1879,150,-3954,-468,1828,1124,32,225,-646
1842,1928,322,-3754,-380,1893,1093,32,225,-646
1843,1893,451,-3813,-242,1943,1068,32,225,-646
1844,1794,443,-4115,-182,2088,1028,32,225,-646
1845,1998,579,-4134,-150,2086,975,32,225,-646
1846,1976,425,-4332,-21,1933,908,32,225,-646
1847,2009,275,-4576,-227,1761,892,32,225,-646
1848,2106,177,-4737,-529,1483,943,32,225,-646
1849,2157,173,-4642,-787,1097,955,32,225,-646
1850,2028,117,-4697,-1100,777,989,32,225,-646
1851,2037,88,-4648,-1335,542,1025,32,225,-646
1852,2010,13,-4630,-1534,277,1088,32,225,-646
1853,1997,49,-4503,-1718,66,1165,32,225,-646
1854,1961,105,-4361,-1856,-125,1262,65,229,-632
1855,1959,209,-4217,-1931,-268,1350,65,229,-632
1856,1940,445,-4056,-1874,-396,1404,65,229,-632
1857,1979,556,-3981,-1754,-559,1429,65,229,-632
1858,1979,576,-4000,-1572,-751,1422,65,229,-632
1859,1994,520,-4095,-1445,-978,1445,65,229,-632
1860,1981,541,-4463,-1395,-1222,1471,65,229,-632
1861,2025,486,-4724,-1460,-1533,1490,65,229,-632
1862,2039,526,-4999,-1633,-1936,1499,65,229,-632
1863,2065,546,-5169,-1848,-2394,1487,65,229,-632
1864,2144,625,-5240,-2028,-2855,1454,65,229,-632
1865,2157,646,-5090,-2241,-3400,1414,65,229,-632
1866,2131,718,-4950,-2464,-3789,1373,65,229,-632
1867,2183,784,-4882,-2649,-4263,1311,65,229,-632
1868,2081,821,-5015,-2832,-4765,1251,65,229,-632
1869,1996,832,-5123,-3018,-5321,1204,65,229,-632
1870,2005,835,-5062,-3290,-5908,1214,29,273,-629
1871,2120,981,-4832,-3522,-6463,1163,29,273,-629
1872,2075,997,-4530,-3806,-6772,1049,29,273,-629
1873,1975,1135,-4270,-3956,-6978,891,29,273,-629
1874,1988,1219,-3985,-3936,-6948,698,29,273,-629
1875,1781,1299,-3713,-3768,-6762,488,29,273,-629
1876,953,967,-3810,-3686,-6273,353,29,273,-629
1877,1788,1176,-3744,-3421,-6161,228,29,273,-629
1878,1873,1221,-4173,-3236,-6302,101,29,273,-629
1879,1591,1210,-4668,-3379,-6291,-15,29,273,-629
1880,1727,1457,-4561,-3630,-6441,-141,29,273,-629
1881,1807,1463,-4203,-3944,-6425,-314,29,273,-629
1882,1683,1810,-3711,-3824,-6222,-537,29,273,-629
1883,1459,1973,-3371,-3384,-5897,-775,29,273,-629
1884,1383,2051,-3398,-2723,-5663,-1012,29,273,-629
1885,1285,1614,-3666,-2392,-5490,-1205,-88,336,-598
1886,1227,1478,-3903,-2543,-5398,-1255,-88,336,-598
1887,1079,1449,-3962,-2609,-5283,-1316,-88,336,-598
1888,789,1672,-3831,-2594,-5230,-1409,-88,336,-598
1889,873,1801,-3628,-2381,-5112,-1514,-88,336,-598
1890,904,1794,-3374,-2231,-4919,-1650,-88,336,-598
1891,956,1757,-3178,-2228,-4785,-1743,-88,336,-598
1892,822,1832,-3109,-2110,-4535,-1859,-88,336,-598
1893,722,1732,-3157,-1892,-4315,-1963,-88,336,-598
1894,558,1600,-3322,-1659,-4082,-2011,-88,336,-598
1895,619,1451,-3301,-1561,-3910,-2029,-88,336,-598
1896,536,1308,-3220,-1513,-3747,-2026,-88,336,-598
1897,468,1228,-3176,-1470,-3439,-1976,-88,336,-598
1898,344,1275,-3092,-1410,-3263,-1935,-88,336,-598
1899,209,1336,-3229,-1377,-2876,-1895,-88,336,-598
1900,147,1176,-3500,-1584,-2626,-1859,-88,336,-598
1901,323,1290,-3523,-1546,-2480,-1852,-184,370,-557
1902,251,1268,-3636,-1621,-2290,-1831,-184,370,-557
1903,254,1455,-3604,-1577,-2242,-1850,-184,370,-557
1904,157,1444,-3664,-1472,-2169,-1898,-184,370,-557
1905,195,1464,-3732,-1475,-2047,-1929,-184,370,-557
1906,189,1435,-3578,-1440,-1936,-1955,-184,370,-557
1907,83,1411,-3512,-1452,-1722,-1938,-184,370,-557
1908,73,1480,-3309,-1403,-1436,-1939,-184,370,-557
1909,66,1519,-3073,-1280,-1125,-1933,-184,370,-557
1910,42,1511,-2990,-1059,-734,-1921,-184,370,-557
1911,9,1544,-2945,-823,-373,-1920,-184,370,-557
1912,-1,1562,-2923,-635,-43,-1918,-184,370,-557
1913,-3,1595,-2891,-482,234,-1927,-184,370,-557
1914,-22,1635,-2864,-308,526,-1958,-184,370,-557
1915,-12,1617,-2922,-79,759,-1974,-184,370,-557
1916,-95,1546,-2991,122,967,-1987,-184,392,-540
1917,-34,1503,-3168,276,1133,-2004,-238,392,-540
1918,-47,1491,-3285,443,1311,-2019,-238,392,-540
1919,7,1437,-3467,573,1473,-2035,-238,392,-540
1920,31,1303,-3725,655,1561,-2025,-238,392,-540
1921,-9,1279,-3979,660,1632,-2018,-238,392,-540
1922,27,1139,-4233,640,1577,-2010,-238,392,-540
1923,-1,959,-4224,651,1554,-1971,-238,392,-540
1924,-37,905,-3986,781,1641,-1892,-238,392,-540
1925,-52,852,-4038,857,1779,-1809,-238,392,-540
1926,-48,776,-4050,810,1917,-1717,-238,392,-540
1927,-20,816,-4142,740,2029,-1619,-238,392,-540
1928,-27,840,-4283,698,2073,-1533,-238,392,-540
1929,-4,875,-4382,621,2028,-1463,-238,392,-540
1930,0,879,-4202,558,1990,-1378,-238,392,-540
1931,2,988,-3838,650,2088,-1308,-238,392,-540
1932,71,1038,-3559,801,2303,-1266,-224,365,-566
1933,17,1109,-3302,1054,2640,-1213,-224,365,-566
1934,42,1080,-3116,1282,3018,-1165,-224,365,-566
1935,75,1044,-3075,1395,3354,-1109,-224,365,-566
1936,71,1035,-3028,1455,3688,-1057,-224,365,-566
1937,160,1056,-2878,1584,4020,-1008,-224,365,-566
1938,206,1088,-2630,1777,4488,-975,-224,365,-566
1939,305,1035,-2430,1994,5057,-927,-224,365,-566
1940,355,912,-2243,2133,5661,-870,-224,365,-566
1941,378,810,-2143,2246,6274,-793,-224,365,-566
1942,418,721,-2262,2448,6831,-698,-224,365,-566
1943,497,768,-2814,2883,7256,-670,-224,365,-566
1944,641,714,-3795,3478,7198,-702,-224,365,-566
1945,752,370,-4849,3855,6741,-693,-224,365,-566
1946,880,-114,-5481,3771,6163,-574,-224,365,-566
1947,812,-352,-5505,3314,5779,-383,-224,365,-566
1948,862,-387,-5137,2761,5595,-138,-137,305,-609
1949,840,-288,-4797,2482,5586,79,-137,305,-609
1950,825,-203,-4573,2452,5629,275,-137,305,-609
1951,854,-207,-4452,2482,5708,462,-137,305,-609
1952,905,-247,-4450,2391,5844,707,-137,305,-609
1953,959,-233,-4396,2148,6085,904,-137,305,-609
1954,1026,-225,-4553,1973,6305,1087,-137,305,-609
1955,1512,-59,-4859,1956,6004,1290,-137,305,-609
1956,1210,-178,-4853,1831,6356,1405,-137,305,-609
1957,1475,-71,-4641,1486,6566,1575,-137,305,-609
1958,1383,13,-4501,1336,6954,1710,-137,305,-609
1959,1764,364,-4402,1428,7346,1766,-137,305,-609
1960,2012,135,-4477,1052,7316,1860,-137,305,-609
1961,1874,416,-4589,965,7424,1840,-137,305,-609
1962,2177,477,-4799,859,7207,1792,-137,305,-609
1963,2236,596,-5105,740,6749,1722,-137,305,-609
1964,2256,618,-5487,661,6189,1625,-1,269,-636
1965,2206,593,-5757,675,5580,1535,-1,269,-636
1966,2280,548,-5723,581,4957,1479,-1,269,-636
1967,2279,138,-5697,242,4302,1472,-1,269,-636
1968,2216,21,-5505,-81,3741,1556,-1,269,-636
1969,2152,-59,-5321,-252,3292,1656,-1,269,-636
1970,2114,-111,-5198,-312,2926,1783,-1,269,-636
1971,2058,-249,-4998,-390,2659,1924,-1,269,-636
1972,2052,-324,-4924,-505,2508,2090,-1,269,-636
1973,2068,-373,-4727,-638,2471,2233,-1,269,-636
1974,2037,-259,-4594,-740,2585,2360,-1,269,-636
1975,2190,-165,-4469,-809,2655,2475,-1,269,-636
1976,2286,-7,-4478,-853,2683,2556,-1,269,-636
1977,2375,178,-4574,-880,2706,2582,-1,269,-636
1978,2551,458,-4525,-771,2555,2487,-1,269,-636
1979,2673,350,-4470,-826,2435,2453,-1,269,-636
1980,2704,395,-4443,-1069,2299,2370,93,250,-626
1981,2679,593,-4408,-1309,2160,2270,93,250,-626
1982,2692,698,-4370,-1562,2041,2153,93,250,-626
1983,2760,863,-4364,-1635,1859,1978,93,250,-626
1984,2739,786,-4361,-1564,1617,1767,93,250,-626
1985,2687,656,-4310,-1511,1405,1655,93,250,-626
1986,2629,497,-4249,-1543,1247,1604,93,250,-626
1987,2562,407,-4253,-1645,1084,1612,93,250,-626
1988,2510,386,-4204,-1730,913,1650,93,250,-626
1989,2434,403,-4240,-1737,736,1681,93,250,-626
1990,2445,456,-4238,-1662,412,1719,93,250,-626
1991,2387,559,-4333,-1586,18,1800,93,250,-626
1992,2429,654,-4389,-1561,-475,1867,93,250,-626
1993,2477,755,-4339,-1575,-1030,1903,93,250,-626
1994,2414,776,-4253,-1667,-1547,1925,93,250,-626
1995,2362,834,-4134,-1793,-1935,1941,120,268,-605
1996,2339,897,-3958,-1900,-2285,1928,120,268,-605
1997,2284,992,-3894,-1996,-2574,1896,120,268,-605
1998,2245,1083,-3827,-1991,-2871,1852,120,268,-605
1999,2254,1244,-3996,-1849,-3182,1764,120,268,-605
2000,2296,1366,-4135,-1650,-3501,1622,120,268,-605
2001,2567,1426,-4417,-1567,-4061,1456,120,268,-605
2002,2540,1478,-4666,-1602,-4622,1258,120,268,-605
2003,2750,1380,-4436,-1998,-5247,1045,120,268,-605
2004,2864,1338,-4112,-2332,-5849,836,120,268,-605
2005,2542,1370,-3983,-2590,-6123,756,120,268,-605
2006,2440,1411,-3816,-2730,-6334,577,120,268,-605
2007,2339,1475,-3769,-2851,-6553,395,120,268,-605
2008,2498,1451,-3593,-3057,-6853,265,120,268,-605
2009,2295,1498,-3375,-3199,-6986,175,120,268,-605
2010,2450,1564,-2995,-3115,-7039,10,120,268,-605
2011,1968,1571,-2702,-3012,-6755,-127,35,318,-604
2012,1663,1483,-2619,-2709,-6272,-289,35,318,-604
2013,1700,1622,-2555,-2095,-5932,-419,35,318,-604
2014,1395,1496,-2918,-1818,-5147,-511,35,318,-604
2015,1545,1533,-3350,-1359,-5192,-633,35,318,-604
2016,1452,1680,-3808,-1105,-5285,-745,35,318,-604
2017,1500,1525,-4086,-1274,-5270,-852,35,318,-604
2018,1677,1567,-4112,-1609,-5501,-960,35,318,-604
2019,1483,1771,-3999,-1708,-5550,-1097,35,318,-604
2020,1287,1881,-3913,-1533,-5401,-1262,35,318,-604
2021,1281,1864,-3941,-1130,-5374,-1452,35,318,-604
2022,1549,1495,-3982,-1113,-5566,-1540,35,318,-604
2023,1514,1386,-4068,-1363,-5703,-1662,35,318,-604
2024,1438,1265,-4039,-1677,-5740,-1739,35,318,-604
2025,994,1234,-3933,-1941,-5442,-1767,35,318,-604
2026,977,1360,-3571,-1976,-5068,-1777,-73,347,-596
2027,949,1391,-3421,-1742,-4940,-1802,-73,347,-596
2028,812,1417,-3587,-1551,-4766,-1821,-73,347,-596
2029,715,1393,-3993,-1418,-4710,-1842,-73,347,-596
2030,685,1433,-4325,-1461,-4806,-1878,-73,347,-596
2031,877,1476,-4400,-1692,-4969,-1988,-73,347,-596
2032,1031,1613,-3993,-1910,-5197,-2144,-73,347,-596
2033,1079,1629,-3523,-2175,-5279,-2212,-73,347,-596
2034,1069,1761,-2828,-2391,-5067,-2304,-73,347,-596
2035,1097,1737,-2059,-2376,-4634,-2411,-73,347,-596
2036,1061,1691,-1826,-2135,-4267,-2505,-73,347,-596
2037,714,1769,-2070,-1666,-3717,-2535,-73,347,-596
2038,374,1398,-2793,-1498,-3018,-2538,-73,347,-596
2039,336,1297,-3232,-1041,-2583,-2531,-73,347,-596
2040,347,1079,-3671,-894,-2290,-2459,-73,347,-596
2041,315,973,-4014,-925,-2126,-2383,-73,347,-596
2042,231,1007,-4070,-994,-1985,-2312,-181,375,-555
2043,213,1020,-3949,-1059,-1851,-2246,-181,375,-555
2044,145,1058,-3770,-1094,-1686,-2146,-181,375,-555
2045,269,1004,-3379,-1199,-1544,-2054,-181,375,-555
2046,160,1060,-3051,-1219,-1303,-1961,-181,375,-555
2047,61,1128,-2844,-1092,-878,-1858,-181,375,-555
2048,-13,1194,-2840,-860,-469,-1786,-181,375,-555
2049,-37,1268,-2938,-589,-100,-1726,-181,375,-555
2050,-19,1347,-3064,-345,160,-1681,-181,375,-555
2051,54,1383,-3235,-159,303,-1672,-181,375,-555
2052,70,1490,-3415,-20,421,-1675,-181,375,-555
2053,137,1435,-3724,51,511,-1709,-181,375,-555
2054,153,1401,-3916,74,597,-1717,-181,375,-555
2055,183,1351,-3850,38,651,-1705,-181,375,-555
2056,179,1435,-3783,51,789,-1696,-181,375,-555
2057,156,1490,-3697,126,971,-1683,-181,390,-553
2058,221,1543,-3705,234,1162,-1693,-218,390,-553
2059,232,1503,-3756,378,1321,-1725,-218,390,-553
2060,308,1460,-3758,538,1439,-1709,-218,390,-553
2061,300,1419,-3681,736,1649,-1690,-218,390,-553
2062,255,1203,-3666,892,1918,-1647,-218,390,-553
2063,153,991,-3585,977,2268,-1541,-218,390,-553
2064,84,831,-3390,1013,2658,-1383,-218,390,-553
2065,46,761,-3141,1039,3118,-1195,-218,390,-553
2066,64,757,-2928,1114,3686,-995,-218,390,-553
2067,120,901,-2934,1294,4223,-842,-218,390,-553
2068,262,1047,-3320,1700,4559,-788,-218,390,-553
2069,434,1042,-3889,2132,4535,-773,-218,390,-553
2070,502,940,-4440,2353,4357,-773,-218,390,-553
2071,493,813,-4550,2399,4280,-760,-218,390,-553
2072,510,716,-4454,2307,4356,-714,-218,390,-553
2073,488,671,-4270,2169,4523,-648,-171,344,-587
2074,475,665,-3990,2064,4696,-578,-171,344,-587
2075,499,727,-3829,2054,4852,-505,-171,344,-587
2076,551,725,-3750,2131,5035,-443,-171,344,-587
2077,578,703,-3686,2215,5220,-374,-171,344,-587
2078,611,658,-3510,2241,5423,-295,-171,344,-587
2079,669,635,-3243,2183,5732,-201,-171,344,-587
2080,783,683,-2902,2064,6133,-140,-171,344,-587
2081,779,706,-2716,2069,6641,-94,-171,344,-587
2082,873,886,-2769,2340,7059,-58,-171,344,-587
2083,987,999,-3319,2894,7287,-93,-171,344,-587
2084,1260,767,-4033,3397,7234,-161,-171,344,-587
2085,1386,375,-4471,3551,7120,-151,-171,344,-587
2086,1371,78,-4658,3213,7267,-69,-171,344,-587
2087,1557,-33,-4511,2663,7634,97,-171,344,-587
2088,1646,67,-4277,2103,8138,241,-171,344,-587
2089,1922,302,-4113,1737,8651,363,-50,286,-624
2090,2096,507,-4023,1563,8940,417,-50,286,-624
2091,2411,740,-4129,1782,8533,435,-50,286,-624
2092,2439,541,-4304,2044,8653,423,-50,286,-624
2093,2836,553,-4677,2394,8400,372,-50,286,-624
2094,2426,347,-5176,2465,8142,274,-50,286,-624
2095,2525,93,-5517,2511,7921,273,-50,286,-624
2096,2522,-148,-5704,2548,7435,316,-50,286,-624
2097,2338,-472,-5761,2313,7124,483,-50,286,-624
2098,2266,-667,-5704,2033,6695,694,-50,286,-624
2099,2256,-653,-5477,1885,6357,898,-50,286,-624
2100,2310,-827,-5271,1541,6028,1126,-50,286,-624
2101,2329,-778,-5104,1084,5730,1390,-50,286,-624
2102,2470,-610,-4772,644,5486,1587,-50,286,-624
2103,2491,-331,-4554,205,5344,1698,-50,286,-624
2104,2648,-26,-4609,35,5201,1685,-50,286,-624
2105,2750,210,-4827,91,5084,1612,97,253,-627
2106,2780,203,-5113,216,4766,1570,97,253,-627
2107,2734,267,-5364,432,4293,1507,97,253,-627
2108,2716,210,-5534,547,3753,1436,97,253,-627
2109,2631,15,-5684,488,3189,1430,97,253,-627
2110,2660,-256,-5606,189,2549,1488,97,253,-627
2111,2612,-474,-5362,-203,1935,1616,97,253,-627
2112,2526,-683,-5017,-631,1432,1765,97,253,-627
2113,2383,-663,-4703,-1072,1074,1962,97,253,-627
2114,2326,-542,-4362,-1449,797,2156,97,253,-627
2115,2305,-327,-4185,-1643,549,2271,97,253,-627
2116,2293,-122,-4061,-1707,278,2312,97,253,-627
2117,2377,69,-3896,-1807,-30,2304,97,253,-627
2118,2419,190,-3767,-2000,-309,2230,97,253,-627
2119,2635,447,-3499,-2109,-637,2070,97,253,-627
2120,2519,348,-3478,-2153,-770,1952,97,253,-627
2121,2501,282,-3584,-2181,-930,1891,97,253,-627
2122,2461,221,-3800,-2078,-1240,1867,97,253,-627
2123,2363,149,-3915,-2053,-1445,1882,97,253,-627
2124,2395,172,-3895,-2102,-1673,1943,97,253,-627
2125,2527,251,-4046,-2099,-1894,1977,97,253,-627
2126,2620,258,-4255,-2001,-2151,1958,97,253,-627
2127,2733,190,-4556,-2047,-2604,1990,97,253,-627
2128,2826,155,-4696,-2277,-3205,2063,97,253,-627
2129,2833,175,-4785,-2754,-3932,2134,97,253,-627
2130,2691,320,-4637,-3381,-4634,2199,97,253,-627
2131,2574,560,-4295,-3914,-5271,2285,97,253,-627
2132,2409,784,-3939,-4168,-5788,2353,97,253,-627
2133,2340,1065,-3550,-4210,-6201,2402,97,253,-627
2134,2298,1292,-3382,-4119,-6483,2339,97,253,-627
2135,2239,1496,-3308,-3912,-6733,2185,97,253,-627
2136,2259,1573,-3390,-3695,-7043,2004,100,282,-606
2137,2272,1668,-3379,-3400,-7546,1781,100,282,-606
2138,2084,1602,-3330,-3342,-7698,1536,100,282,-606
2139,2142,1493,-3038,-3723,-7622,1411,100,282,-606
2140,1880,1553,-2679,-3810,-7442,1237,100,282,-606
2141,1329,1522,-2260,-3825,-6486,1087,100,282,-606
2142,1756,1990,-1908,-3325,-6153,960,100,282,-606
2143,1545,1971,-1834,-2690,-5629,730,100,282,-606
2144,1648,1810,-1957,-2179,-4745,558,100,282,-606
2145,1771,1799,-2380,-1906,-4294,334,100,282,-606
2146,1878,1648,-3234,-1715,-4157,129,100,282,-606
2147,1936,1626,-3776,-1644,-4143,-59,100,282,-606
2148,1910,1696,-4118,-1838,-4137,-246,100,282,-606
2149,1919,1758,-4133,-2196,-4171,-429,100,282,-606
2150,1864,1978,-3904,-2505,-4187,-597,100,282,-606
2151,1773,2223,-3642,-2467,-4179,-762,100,282,-606
2152,1633,2535,-3481,-2075,-4224,-960,0,343,-596
2153,1563,2505,-3750,-1415,-4376,-1149,0,343,-596
2154,1530,2396,-3957,-968,-4538,-1266,0,343,-596
2155,1521,2231,-4096,-968,-4724,-1432,0,343,-596
2156,1678,1934,-3878,-1264,-4909,-1590,0,343,-596
2157,1569,1765,-3476,-1551,-5032,-1727,0,343,-596
2158,1385,1924,-3005,-1505,-5081,-1776,0,343,-596
2159,1316,1948,-2855,-1306,-5075,-1834,0,343,-596
2160,1279,2056,-3114,-1167,-4997,-1927,0,343,-596
2161,1205,2162,-3443,-1130,-4851,-2085,0,343,-596
2162,1281,2183,-3560,-1210,-4682,-2285,0,343,-596
2163,1395,2144,-3465,-1288,-4680,-2526,0,343,-596
2164,1244,1995,-3369,-1231,-4700,-2759,0,343,-596
2165,1170,1811,-3271,-1125,-4630,-2884,0,343,-596
2166,849,1659,-3235,-1025,-4358,-2947,0,343,-596
2167,839,1520,-3235,-949,-4052,-2963,-111,365,-582
2168,745,1496,-3278,-854,-3645,-2942,-111,365,-582
2169,661,1419,-3412,-838,-3347,-2893,-111,365,-582
2170,681,1421,-3596,-885,-3047,-2838,-111,365,-582
2171,708,1399,-3484,-974,-2801,-2797,-111,365,-582
2172,788,1358,-3223,-1079,-2566,-2747,-111,365,-582
2173,737,1392,-2847,-1075,-2164,-2692,-111,365,-582
2174,546,1355,-2552,-929,-1442,-2581,-111,365,-582
2175,505,1468,-2428,-402,-752,-2495,-111,365,-582
2176,479,1360,-2435,-21,-150,-2431,-111,365,-582
2177,550,1332,-2586,204,392,-2344,-111,365,-582
2178,629,1602,-2723,402,1047,-2294,-111,365,-582
2179,772,1786,-2784,594,1640,-2324,-111,365,-582
2180,782,1890,-3009,764,2110,-2396,-111,365,-582
2181,883,1925,-3135,970,2469,-2508,-111,365,-582
2182,856,1771,-2990,1389,2879,-2577,-111,365,-582
2183,831,1504,-2764,1792,3468,-2532,-157,359,-565
2184,875,1182,-2446,2105,4033,-2420,-157,359,-565
2185,652,927,-2195,2363,4714,-2231,-157,359,-565
2186,541,748,-1922,2765,5453,-2016,-157,359,-565
2187,543,574,-1904,3333,6109,-1790,-157,359,-565
2188,503,351,-2119,3974,6662,-1561,-157,359,-565
2189,455,6,-2289,4507,7257,-1310,-157,359,-565
2190,500,-348,-2296,4880,7876,-1027,-157,359,-565
2191,416,-610,-2266,5095,8533,-705,-157,359,-565
2192,497,-873,-2203,5267,9226,-357,-157,359,-565
2193,739,-1019,-2344,5375,9799,-32,-157,359,-565
2194,936,-878,-2893,5593,10131,240,-157,359,-565
2195,1296,-773,-3732,6015,10102,349,-157,359,-565
2196,1235,-837,-4696,6445,10048,317,-157,359,-565
2197,1582,-1099,-5398,6546,9836,336,-157,359,-565
2198,1783,-1354,-5723,5973,9440,461,-25,268,-639
2199,1775,-1505,-5833,4823,9081,623,-25,268,-639
2200,2054,-1144,-5639,3730,8241,819,-25,268,-639
2201,2053,-1262,-5513,2814,8160,958,-25,268,-639
2202,2464,-598,-4981,2420,7801,1085,-25,268,-639
2203,2038,-477,-5002,2598,7533,1132,-25,268,-639
2204,2393,-459,-4909,2920,7282,1149,-25,268,-639
2205,2341,-620,-5015,2386,7038,1257,-25,268,-639
2206,2499,-371,-4819,2135,6997,1257,-25,268,-639
2207,2692,-364,-4756,2015,6607,1285,-25,268,-639
2208,2554,-368,-4816,1903,6310,1343,-25,268,-639
2209,2622,-380,-4904,1855,6027,1359,-25,268,-639
2210,2621,-351,-4980,1792,5653,1421,-25,268,-639
2211,2716,-137,-5039,1952,5039,1411,-25,268,-639
2212,2588,-368,-5064,1785,4575,1392,-25,268,-639
2213,2801,-535,-5421,1503,4265,1366,-25,268,-639
2214,2685,-597,-5371,1315,4026,1376,128,193,-639
2215,2656,-804,-5201,1164,3760,1399,128,193,-639
2216,2773,-1007,-5039,959,3440,1438,128,193,-639
2217,2694,-1058,-4988,680,3091,1617,128,193,-639
2218,2699,-1069,-4863,312,2766,1800,128,193,-639
2219,2683,-927,-4840,-174,2493,1935,128,193,-639
2220,2912,-436,-4676,-485,2142,1952,128,193,-639
2221,2878,-261,-4470,-740,1904,1929,128,193,-639
2222,2928,-38,-4331,-887,1703,1854,128,193,-639
2223,2933,72,-4182,-746,1414,1737,128,193,-639
2224,2805,-53,-4210,-558,1244,1683,128,193,-639
2225,2865,-266,-4318,-428,973,1658,128,193,-639
2226,2921,-504,-4383,-490,572,1686,128,193,-639
2227,2837,-903,-4610,-921,210,1802,128,193,-639
2228,2872,-554,-4431,-1235,-41,1885,128,193,-639
2229,2658,-643,-4302,-1631,-138,1957,128,193,-639
2230,2844,-521,-4175,-1884,-360,2055,170,179,-624
2231,2715,-331,-3947,-2093,-515,2098,170,179,-624
2232,2831,-30,-3771,-2146,-673,2112,170,179,-624
2233,2762,-12,-3783,-2143,-808,2114,170,179,-624
2234,2755,169,-3930,-2077,-948,2126,170,179,-624
2235,2825,407,-4061,-2058,-1186,2080,170,179,-624
2236,2766,574,-4243,-2062,-1447,2026,170,179,-624
2237,2815,794,-4397,-2016,-1788,1920,170,179,-624
2238,2922,937,-4680,-1847,-2243,1803,170,179,-624
2239,2995,901,-4964,-1613,-2886,1687,170,179,-624
2240,3201,634,-5323,-1628,-3639,1528,170,179,-624
2241,2991,715,-5149,-1315,-4625,1381,170,179,-624
2242,3209,96,-6031,-1510,-5994,1761,170,179,-624
2243,3109,-117,-5935,-2694,-7062,1854,170,179,-624
2244,3208,22,-5571,-3957,-7969,1981,170,179,-624
2245,2982,477,-5222,-4747,-8665,2055,118,217,-636
2246,2912,707,-4845,-5160,-8997,2028,118,217,-636
2247,2858,794,-4336,-5436,-9278,1947,118,217,-636
2248,2960,997,-3595,-5531,-9507,1750,118,217,-636
2249,2878,1076,-3037,-5564,-9546,1566,118,217,-636
2250,2666,1275,-2748,-5280,-9436,1408,118,217,-636
2251,2194,1338,-2728,-4801,-9049,1188,118,217,-636
2252,2035,1201,-2938,-4517,-8414,995,118,217,-636
2253,1840,1178,-3136,-4342,-7887,793,118,217,-636
2254,986,1257,-3338,-4517,-6794,513,118,217,-636
2255,2408,1968,-2862,-4466,-6670,197,118,217,-636
2256,2257,2289,-2753,-4094,-6662,-184,118,217,-636
2257,1713,2284,-3018,-3856,-6131,-575,118,217,-636
2258,1960,2279,-3226,-3495,-5983,-936,118,217,-636
2259,1675,2416,-3428,-2767,-5872,-1287,118,217,-636
2260,1499,1997,-3858,-2462,-5760,-1564,118,217,-636
2261,1573,1938,-4001,-2327,-5663,-1794,-20,298,-617
2262,1775,1549,-3812,-2501,-5601,-2093,-20,298,-617
2263,1983,1485,-3496,-2915,-5916,-2216,-20,298,-617
2264,1746,1602,-3431,-3002,-6042,-2403,-20,298,-617
2265,1633,1532,-3437,-3042,-5740,-2598,-20,298,-617
2266,1364,1388,-3353,-3217,-5386,-2717,-20,298,-617
2267,1451,1555,-3092,-3108,-5268,-2776,-20,298,-617
2268,1378,1766,-2937,-3011,-5042,-2889,-20,298,-617
2269,1013,1761,-2936,-2893,-4485,-2974,-20,298,-617
2270,943,1852,-2870,-2623,-4000,-3039,-20,298,-617
2271,831,1888,-2957,-2171,-3523,-3084,-20,298,-617
2272,840,1868,-3014,-1859,-3170,-3167,-20,298,-617
2273,851,1858,-3007,-1508,-2730,-3241,-20,298,-617
2274,865,1821,-3019,-1063,-2535,-3337,-20,298,-617
2275,784,1764,-3223,-736,-2303,-3385,-20,298,-617
2276,772,1672,-3409,-596,-2200,-3469,-141,346,-581
2277,847,1471,-3479,-564,-2167,-3557,-141,346,-581
2278,942,1329,-3427,-662,-2256,-3584,-141,346,-581
2279,666,983,-3546,-1114,-2079,-3534,-141,346,-581
2280,634,1158,-3300,-1296,-1957,-3500,-141,346,-581
2281,647,1135,-2996,-1395,-1826,-3449,-141,346,-581
2282,534,1140,-2841,-1415,-1630,-3400,-141,346,-581
2283,456,1235,-2640,-1249,-1284,-3324,-141,346,-581
2284,271,1262,-2632,-1079,-796,-3242,-141,346,-581
2285,151,1251,-2655,-845,-246,-3182,-141,346,-581
2286,173,1170,-2610,-592,244,-3111,-141,346,-581
2287,145,1168,-2576,-313,697,-3037,-141,346,-581
2288,117,1202,-2656,25,1153,-2980,-141,346,-581
2289,164,1235,-2696,379,1507,-2952,-141,346,-581
2290,245,1171,-2953,683,1775,-2917,-141,346,-581
2291,289,1084,-3161,896,1976,-2892,-141,346,-581
2292,345,1056,-3259,1058,2187,-2871,-200,357,-580
2293,413,909,-3213,1172,2363,-2822,-200,357,-580
2294,422,777,-3167,1326,2644,-2739,-200,357,-580
2295,454,734,-3176,1485,2952,-2638,-200,357,-580
2296,475,701,-3209,1689,3263,-2561,-200,357,-580
2297,509,651,-3340,2004,3558,-2487,-200,357,-580
2298,506,426,-3570,2315,3812,-2409,-200,357,-580
2299,476,274,-3689,2591,4062,-2292,-200,357,-580
2300,437,24,-3760,2764,4315,-2126,-200,357,-580
2301,380,-243,-3763,2882,4575,-1921,-200,357,-580
2302,332,-543,-3748,2914,4833,-1652,-200,357,-580
2303,292,-620,-3724,2901,5017,-1338,-200,357,-580
2304,255,-685,-3668,2892,5335,-1043,-200,357,-580
2305,356,-651,-3559,2902,5678,-789,-200,357,-580
2306,483,-539,-3408,2926,5953,-521,-200,357,-580
2307,565,-445,-3268,3045,6236,-282,-135,292,-621
2308,677,-323,-3216,3103,6639,-115,-135,292,-621
2309,748,-224,-2949,3182,7107,11,-135,292,-621
2310,812,-213,-2811,3298,7603,142,-135,292,-621
2311,887,-250,-2682,3458,8175,274,-135,292,-621
2312,1046,-285,-2633,3599,8621,420,-135,292,-621
2313,1186,-262,-2821,3689,8946,542,-135,292,-621
2314,1238,-165,-3253,3877,9229,630,-135,292,-621
2315,1384,-141,-3716,4025,9583,643,-135,292,-621
2316,1678,-316,-4058,4047,9505,702,-135,292,-621
2317,1916,-521,-4316,3843,9283,790,-135,292,-621
2318,2092,-643,-4518,3552,8466,944,-135,292,-621
2319,2018,-789,-4843,3293,8356,1064,-135,292,-621
2320,2419,-862,-5201,3375,7889,1145,-135,292,-621
2321,1974,-854,-5896,3552,7636,1196,-135,292,-621
2322,2354,-1129,-6451,3804,7200,1222,-135,292,-621
2323,2338,-1451,-6729,3795,6565,1353,33,203,-648
2324,2411,-1368,-6840,3226,5975,1575,33,203,-648
2325,2679,-1464,-6824,2398,5246,1799,33,203,-648
2326,2694,-1268,-6673,1725,4565,1980,33,203,-648
2327,2751,-1127,-6399,945,4088,2130,33,203,-648
2328,2806,-812,-5949,532,3707,2184,33,203,-648
2329,2811,-694,-5433,169,3423,2242,33,203,-648
2330,2773,-610,-5002,-66,3216,2304,33,203,-648
2331,2842,-433,-4637,-80,3039,2306,33,203,-648
2332,2696,-360,-4346,-170,2956,2360,33,203,-648
2333,2622,-210,-4229,-151,2961,2390,33,203,-648
2334,2541,-16,-4231,-75,2995,2358,33,203,-648
2335,2621,123,-4290,20,3047,2273,33,203,-648
2336,2695,141,-4394,-9,2998,2184,33,203,-648
2337,2716,153,-4492,-57,2864,2079,33,203,-648
2338,2654,106,-4566,-93,2688,1992,33,203,-648
2339,2716,39,-4634,-169,2408,1947,125,177,-648
2340,2719,-124,-4652,-237,2078,1900,125,177,-648
2341,2758,-226,-4558,-311,1765,1886,125,177,-648
2342,2668,-369,-4457,-284,1444,1874,125,177,-648
2343,2686,-575,-4441,-616,1231,1947,125,177,-648
2344,2739,-584,-4424,-863,1018,1992,125,177,-648
2345,2697,-717,-4453,-1133,819,2041,125,177,-648
2346,2737,-736,-4492,-1501,605,2124,125,177,-648
2347,2801,-679,-4494,-1870,300,2225,125,177,-648
2348,2874,-494,-4548,-2247,-63,2282,125,177,-648
2349,2876,-349,-4613,-2562,-391,2313,125,177,-648
2350,2796,-163,-4523,-2737,-734,2306,125,177,-648
2351,2913,88,-4356,-2685,-1198,2274,125,177,-648
2352,2784,209,-4332,-2733,-1447,2281,125,177,-648
2353,2762,266,-4531,-2739,-1771,2234,125,177,-648
2354,2899,556,-4568,-2692,-2283,2197,147,182,-635
2355,2844,593,-4728,-2799,-2717,2157,147,182,-635
2356,2955,859,-4683,-2934,-3257,2076,147,182,-635
2357,2929,929,-4584,-3042,-3795,1978,147,182,-635
2358,2837,1061,-4564,-3135,-4331,1892,147,182,-635
2359,2874,1196,-4601,-3121,-4905,1785,147,182,-635
2360,2865,1211,-4783,-3060,-5629,1647,147,182,-635
2361,2802,1095,-4894,-3133,-6321,1508,147,182,-635
2362,2802,1007,-4997,-3339,-7030,1387,147,182,-635
2363,2682,940,-4988,-3679,-7525,1260,147,182,-635
2364,2700,916,-4690,-4082,-7944,1118,147,182,-635
2365,2630,922,-4444,-4437,-8206,1001,147,182,-635
2366,2505,923,-4231,-4709,-8359,901,147,182,-635
2367,2694,1040,-3958,-4831,-8635,749,147,182,-635
2368,2625,1260,-3522,-4603,-8930,549,147,182,-635
2369,2593,1036,-3127,-4575,-9038,392,147,182,-635
2370,2425,954,-2881,-4621,-9045,297,29,253,-628
2371,924,975,-3262,-4622,-8147,188,29,253,-628
2372,1709,1488,-2444,-4277,-7300,20,29,253,-628
2373,1722,1598,-2194,-3889,-7011,-197,29,253,-628
2374,1376,1942,-2232,-3511,-6340,-414,29,253,-628
2375,1631,2193,-2173,-3082,-5874,-704,29,253,-628
2376,1587,2315,-2210,-2530,-5471,-1026,29,253,-628
2377,1633,2165,-2363,-1971,-5039,-1365,29,253,-628
2378,1545,1997,-2740,-1443,-4800,-1623,29,253,-628
2379,1413,1847,-3442,-906,-4765,-1856,29,253,-628
2380,1313,1616,-3988,-718,-4694,-2056,29,253,-628
2381,1282,1405,-4274,-985,-4682,-2161,29,253,-628
2382,1377,1576,-4118,-1276,-4639,-2272,29,253,-628
2383,1369,1832,-3760,-1636,-4570,-2425,29,253,-628
2384,1345,2249,-3421,-1613,-4376,-2703,29,253,-628
2385,1282,2417,-3174,-1266,-4200,-2992,-99,317,-613
2386,1220,2392,-3115,-722,-4048,-3281,-99,317,-613
2387,1052,2173,-3199,-428,-3777,-3453,-99,317,-613
2388,1010,2089,-3272,-139,-3538,-3625,-99,317,-613
2389,1300,1480,-2999,-42,-3397,-3841,-99,317,-613
2390,1518,956,-2525,-385,-3705,-3928,-99,317,-613
2391,1059,750,-2421,-651,-3659,-3882,-99,317,-613
2392,622,545,-2338,-1011,-3115,-3760,-99,317,-613
2393,500,987,-2269,-1009,-2450,-3685,-99,317,-613
2394,572,1046,-2303,-763,-1856,-3654,-99,317,-613
2395,609,987,-2513,-575,-1440,-3613,-99,317,-613
2396,515,831,-2955,-398,-1167,-3557,-99,317,-613
2397,334,675,-3189,-323,-830,-3473,-99,317,-613
2398,335,585,-3257,-352,-500,-3378,-99,317,-613
2399,288,631,-3150,-308,-129,-3259,-99,317,-613
2400,355,720,-2857,-255,223,-3164,-99,317,-613
2401,341,963,-2567,-19,684,-3104,-176,316,-603
2402,397,1212,-2372,398,1259,-3096,-176,316,-603
2403,444,1330,-2231,868,1863,-3127,-176,316,-603
2404,488,1372,-2292,1449,2398,-3167,-176,316,-603
2405,476,1191,-2642,1996,2865,-3179,-176,316,-603
2406,549,758,-2727,2403,3229,-3139,-176,316,-603
2407,529,308,-2712,2686,3582,-3006,-176,316,-603
2408,511,-4,-2522,2773,3950,-2805,-176,316,-603
2409,302,-183,-2358,2915,4559,-2525,-176,316,-603
2410,330,-416,-1949,3127,5315,-2252,-176,316,-603
2411,333,-530,-1819,3487,6065,-1921,-176,316,-603
2412,257,-712,-2078,3851,6844,-1600,-176,316,-603
2413,387,-1041,-2596,4149,7463,-1279,-176,316,-603
2414,503,-1323,-3041,4294,7959,-929,-176,316,-603
2415,538,-1463,-3469,4118,8206,-523,-176,316,-603
2416,590,-1432,-3686,3844,8536,-176,-176,316,-603
2417,825,-1293,-3716,3559,8850,139,-176,316,-603
2418,1018,-1123,-3775,3343,9043,392,-176,316,-603
2419,1195,-966,-3920,3064,9125,548,-176,316,-603
2420,1461,-732,-4232,2870,8993,647,-176,316,-603
2421,1457,-638,-4400,2892,8941,688,-176,316,-603
2422,1514,-725,-4498,2749,8939,763,-176,316,-603
2423,1832,-830,-4444,2549,8842,856,-176,316,-603
2424,2826,-683,-4598,2288,8137,1079,-176,316,-603
2425,1971,-451,-4942,2457,7791,1059,-176,316,-603
2426,2316,-430,-5732,2852,7314,1050,-176,316,-603
2427,2388,-621,-6817,3007,6340,1023,-176,316,-603
2428,2403,-878,-7526,2831,5724,1059,-176,316,-603
2429,2724,-1152,-7688,2180,4591,1149,-176,316,-603
2430,2660,-819,-7504,1774,3700,1285,-176,316,-603
2431,2833,-1000,-7070,1049,2804,1390,-176,316,-603
2432,2785,-889,-6688,595,2052,1516,45,184,-662
2433,2693,-807,-6126,318,1518,1593,45,184,-662
2434,2697,-734,-5700,96,1145,1678,45,184,-662
2435,2488,-654,-5355,-155,998,1749,45,184,-662
2436,2463,-497,-5007,-328,976,1768,45,184,-662
2437,2456,-358,-4725,-403,993,1769,45,184,-662
2438,2400,-217,-4559,-383,988,1743,45,184,-662
2439,2316,-135,-4494,-267,955,1694,45,184,-662
2440,2193,-123,-4457,-113,927,1659,45,184,-662
2441,2104,-129,-4530,-11,862,1632,45,184,-662
2442,2144,-148,-4559,-55,776,1588,45,184,-662
2443,2195,-130,-4602,-223,568,1580,45,184,-662
2444,2245,9,-4722,-475,363,1548,45,184,-662
2445,2239,141,-4637,-717,213,1487,45,184,-662
2446,2358,290,-4615,-929,-18,1387,45,184,-662
2447,2436,456,-4500,-1063,-186,1240,45,184,-662
2448,2471,538,-4434,-1120,-364,1072,78,169,-656
2449,2493,579,-4287,-1144,-497,895,78,169,-656
2450,2522,562,-4228,-1186,-601,721,78,169,-656
2451,2517,527,-4087,-1293,-652,581,78,169,-656
2452,2453,551,-3949,-1394,-649,464,78,169,-656
2453,2451,587,-3863,-1462,-626,355,78,169,-656
2454,2441,596,-3769,-1458,-612,247,78,169,-656
2455,2342,609,-3729,-1389,-598,145,78,169,-656
2456,2375,715,-3716,-1186,-642,46,78,169,-656
2457,2288,569,-3737,-1100,-613,-29,78,169,-656
2458,2200,523,-3715,-1074,-582,-76,78,169,-656
2459,2148,517,-3674,-1050,-554,-101,78,169,-656
2460,2049,594,-3653,-1058,-523,-101,78,169,-656
2461,2001,624,-3556,-1006,-531,-99,78,169,-656
2462,1974,668,-3493,-884,-577,-106,78,169,-656
2463,1958,662,-3419,-756,-641,-121,78,169,-656
2464,1908,586,-3362,-647,-679,-121,59,195,-648
2465,1852,503,-3305,-571,-661,-102,59,195,-648
2466,1762,474,-3271,-514,-582,-56,59,195,-648
2467,1744,470,-3272,-444,-502,-15,59,195,-648
2468,1720,452,-3278,-365,-406,20,59,195,-648
2469,1758,501,-3348,-295,-311,33,59,195,-648
2470,1784,500,-3402,-207,-223,23,59,195,-648
2471,1789,443,-3524,-82,-148,20,59,195,-648
2472,1773,366,-3615,38,-103,21,59,195,-648
2473,1810,255,-3782,165,-96,38,59,195,-648
2474,1856,101,-3896,204,-158,63,59,195,-648
2475,1883,-102,-4013,98,-272,100,59,195,-648
2476,1843,-210,-4021,-103,-341,211,59,195,-648
2477,1862,-176,-3914,-331,-314,303,59,195,-648
2478,1916,-77,-3872,-517,-251,364,59,195,-648
2479,1968,94,-3821,-593,-167,380,59,195,-648
2480,1942,237,-3850,-567,-138,376,51,208,-655
2481,1963,274,-3936,-478,-153,353,51,208,-655
2482,1961,260,-4038,-380,-197,327,51,208,-655
2483,1958,239,-4148,-374,-275,314,51,208,-655
2484,1978,221,-4165,-451,-349,307,51,208,-655
2485,1959,164,-4014,-580,-409,293,51,208,-655
2486,1945,186,-3898,-679,-440,285,51,208,-655
2487,1927,286,-3757,-697,-397,286,51,208,-655
2488,1919,377,-3665,-641,-343,258,51,208,-655
2489,1940,415,-3688,-561,-275,220,51,208,-655
2490,1926,426,-3711,-482,-246,178,51,208,-655
2491,1929,443,-3818,-421,-227,138,51,208,-655
2492,1926,446,-3886,-360,-237,90,51,208,-655
2493,1974,458,-3924,-345,-274,52,51,208,-655
2494,1971,440,-3897,-341,-312,10,51,208,-655
2495,1960,412,-3848,-321,-332,-22,51,208,-655
2496,1939,448,-3806,-288,-310,-52,54,208,-650
2497,1942,435,-3724,-225,-284,-91,54,208,-650
