,ax,ay,az,gx,gy,gz,cx,cy,cz
1,1324,1239,-3931,-134,-20,-1,-31,352,-581
2,1321,1225,-3920,-109,-10,-7,-31,352,-581
3,1318,1222,-3904,-108,-8,-3,-31,352,-581
4,1332,1227,-3938,-100,-1,-2,-31,352,-581
5,1334,1207,-3912,-86,7,2,-31,352,-581
6,1294,1216,-3931,-92,21,7,-31,352,-581
7,1316,1235,-3972,-65,15,12,-31,352,-581
8,1342,1223,-3938,-47,7,12,-31,352,-581
9,1314,1225,-3940,-50,6,6,-31,352,-581
10,1357,1235,-3931,-61,8,14,-31,352,-581
11,1352,1233,-3993,-63,10,10,-31,352,-581
12,1350,1246,-3919,-78,7,4,-24,342,-580
13,1359,1199,-3928,-92,-1,5,-24,342,-580
14,1347,1232,-3887,-95,-20,-3,-24,342,-580
15,1348,1231,-3864,-84,-4,-4,-24,342,-580
16,1368,1225,-3860,-91,0,-2,-24,342,-580
17,1347,1249,-3883,-81,11,3,-24,342,-580
18,1364,1247,-3918,-84,5,2,-24,342,-580
19,1343,1248,-3932,-84,7,-12,-24,342,-580
20,1337,1265,-3948,-86,18,-15,-24,342,-580
21,1341,1263,-3919,-94,30,-13,-24,342,-580
22,1338,1277,-3915,-82,35,-13,-24,342,-580
23,1320,1248,-3906,-49,37,-9,-24,342,-580
24,1296,1246,-3930,-30,41,-12,-24,342,-580
25,1315,1222,-3939,-16,45,-3,-24,342,-580
26,1341,1210,-3955,-6,53,2,-24,342,-580
27,1357,1199,-3991,-20,39,-2,-24,342,-580
28,1360,1176,-4027,-50,22,-11,-24,342,-580
29,1382,1201,-4029,-94,-4,-15,-22,340,-576
30,1380,1227,-4029,-123,8,-20,-22,340,-576
31,1383,1225,-4036,-137,2,-20,-22,340,-576
32,1361,1229,-3993,-131,-15,-26,-22,340,-576
33,1379,1224,-3979,-117,-9,-24,-22,340,-576
34,1351,1195,-3939,-110,6,-19,-22,340,-576
35,1344,1239,-3958,-112,19,-18,-22,340,-576
36,1341,1246,-3940,-115,28,-15,-22,340,-576
37,1346,1244,-3924,-101,38,-20,-22,340,-576
38,1328,1234,-3957,-82,44,-27,-22,340,-576
39,1330,1244,-3960,-77,46,-35,-22,340,-576
40,1325,1226,-3977,-89,47,-30,-22,340,-576
41,1311,1199,-3957,-100,47,-41,-22,340,-576
42,1314,1186,-3931,-114,27,-36,-22,340,-576
43,1350,1167,-3979,-123,19,-30,-22,340,-576
44,1346,1220,-3938,-121,14,-18,-22,340,-576
45,1323,1211,-3975,-114,3,-12,-27,353,-581
46,1337,1202,-3916,-100,-6,-5,-27,353,-581
47,1287,1207,-3930,-100,-14,1,-27,353,-581
48,1299,1249,-3904,-102,-4,7,-27,353,-581
49,1332,1241,-3926,-96,7,-1,-27,353,-581
50,1333,1269,-3892,-84,20,-1,-27,353,-581
51,1306,1266,-3930,-53,22,-18,-27,353,-581
52,1331,1235,-3949,-40,40,-11,-27,353,-581
53,1322,1223,-3974,-46,40,-15,-27,353,-581
54,1311,1193,-3925,-45,51,-6,-27,353,-581
55,1295,1179,-3914,-42,45,1,-27,353,-581
56,1313,1178,-3983,-34,46,12,-27,353,-581
57,1326,1164,-3991,-32,28,11,-27,353,-581
58,1369,1152,-3979,-68,14,17,-27,353,-581
59,1363,1182,-3985,-100,9,14,-27,353,-581
60,1383,1205,-3981,-122,7,10,-27,353,-581
61,1376,1217,-3967,-123,1,16,-27,353,-581
62,1362,1250,-3878,-112,4,5,-27,353,-581
63,1339,1245,-3953,-96,-5,12,-27,353,-581
64,1315,1232,-3934,-79,16,9,-27,353,-581
65,1320,1188,-3897,-79,19,10,-27,353,-581
66,1351,1222,-3916,-91,23,3,-27,353,-581
67,1346,1248,-3894,-91,32,-2,-27,353,-581
68,1355,1275,-3927,-88,49,-3,-27,353,-581
69,1347,1286,-3902,-83,50,-14,-27,353,-581
70,1353,1255,-3918,-70,37,-21,-27,353,-581
71,1350,1236,-3982,-65,31,-16,-27,353,-581
72,1323,1216,-3946,-65,42,-13,-27,353,-581
73,1318,1242,-3942,-61,50,-5,-27,353,-581
74,1320,1205,-3955,-40,57,0,-27,353,-581
75,1335,1220,-3968,-23,57,12,-27,353,-581
76,1311,1205,-3985,13,66,11,-27,353,-581
77,1328,1206,-4032,21,97,18,-27,353,-581
78,1366,1204,-4003,-12,82,16,-22,341,-577
79,1374,1229,-3978,-40,43,9,-22,341,-577
80,1330,1238,-3975,-73,34,11,-22,341,-577
81,1339,1217,-3927,-61,30,8,-22,341,-577
82,1355,1230,-3939,-55,37,7,-22,341,-577
83,1345,1192,-3970,-52,46,15,-22,341,-577
84,1350,1192,-4015,-60,34,28,-22,341,-577
85,1357,1200,-3998,-66,21,27,-22,341,-577
86,1348,1222,-3982,-68,15,28,-22,341,-577
87,1369,1206,-3967,-58,7,25,-22,341,-577
88,1373,1212,-3980,-63,13,23,-22,341,-577
89,1382,1225,-3976,-71,29,21,-22,341,-577
90,1357,1255,-3936,-88,32,21,-22,341,-577
91,1400,1209,-3962,-76,36,13,-22,341,-577
92,1362,1191,-3955,-57,25,4,-22,341,-577
93,1322,1175,-3949,-58,37,20,-22,341,-577
94,1362,1204,-3960,-74,65,23,-30,351,-583
95,1326,1218,-3925,-100,88,19,-30,351,-583
96,1327,1238,-3911,-65,181,37,-30,351,-583
97,1369,1212,-3923,3,148,14,-30,351,-583
98,1325,1181,-3999,-42,108,27,-30,351,-583
99,1351,1217,-3953,-122,86,12,-30,351,-583
100,1343,1227,-3937,-128,100,10,-30,351,-583
101,1347,1243,-3918,-106,120,18,-30,351,-583
102,1366,1269,-3904,-65,126,15,-30,351,-583
103,1362,1225,-3890,-40,137,19,-30,351,-583
104,1343,1265,-3912,-24,159,24,-30,351,-583
105,1360,1207,-3901,-20,174,16,-30,351,-583
106,1343,1199,-3923,-35,193,4,-30,351,-583
107,1389,1249,-3949,5,219,7,-30,351,-583
108,1378,1265,-4066,87,190,11,-30,351,-583
109,1431,1198,-4044,66,162,-4,-30,351,-583
110,1431,1199,-3977,22,151,-13,-30,351,-583
111,1410,1180,-4024,-17,182,-23,-17,343,-582
112,1403,1214,-3996,-38,216,-24,-17,343,-582
113,1394,1238,-3990,-25,230,-25,-17,343,-582
114,1412,1231,-3938,-21,220,-17,-17,343,-582
115,1408,1271,-3934,-34,223,-24,-17,343,-582
116,1420,1267,-3989,-32,246,-20,-17,343,-582
117,1456,1273,-3973,-13,273,-22,-17,343,-582
118,1491,1306,-3978,-6,291,-25,-17,343,-582
119,1504,1324,-3955,14,308,-61,-17,343,-582
120,1478,1329,-3956,31,344,-92,-17,343,-582
121,1504,1242,-3960,28,338,-117,-17,343,-582
122,1425,1237,-3991,4,326,-123,-17,343,-582
123,1405,1243,-3976,-19,342,-123,-17,343,-582
124,1396,1229,-3937,-25,360,-119,-17,343,-582
125,1408,1260,-3903,8,365,-111,-17,343,-582
126,1383,1235,-3872,32,356,-106,-17,343,-582
127,1351,1194,-3876,56,367,-95,-14,337,-572
128,1336,1151,-3899,46,396,-88,-14,337,-572
129,1314,1136,-3883,38,435,-68,-14,337,-572
130,1323,1107,-3907,53,453,-41,-14,337,-572
131,1353,1142,-3919,53,439,-21,-14,337,-572
132,1375,1148,-3931,40,423,-17,-14,337,-572
133,1399,1167,-3929,37,429,-8,-14,337,-572
134,1367,1168,-3892,22,436,-5,-14,337,-572
135,1373,1127,-3852,1,451,-7,-14,337,-572
136,1410,1108,-3915,-29,431,-23,-14,337,-572
137,1480,1149,-3871,-122,391,-26,-14,337,-572
138,1495,1235,-3874,-217,330,-42,-14,337,-572
139,1491,1298,-3894,-258,298,-71,-14,337,-572
140,1453,1297,-3882,-226,316,-76,-14,337,-572
141,1460,1255,-3863,-168,311,-69,-14,337,-572
142,1422,1250,-3829,-91,291,-58,-14,337,-572
143,1462,1200,-3883,-50,249,-47,-15,350,-581
144,1505,1213,-3940,-37,195,-25,-15,350,-581
145,1470,1194,-3954,-23,154,-19,-15,350,-581
146,1471,1192,-3945,-10,150,-14,-15,350,-581
147,1490,1222,-3958,-9,143,-16,-15,350,-581
148,1482,1180,-3968,-9,128,-14,-15,350,-581
149,1483,1179,-3973,-38,124,-9,-15,350,-581
150,1430,1191,-3933,-70,123,-15,-15,350,-581
151,1445,1203,-3878,-98,154,-5,-15,350,-581
152,1436,1228,-3894,-71,195,3,-15,350,-581
153,1433,1230,-3868,-16,244,10,-15,350,-581
154,1449,1259,-3905,27,267,9,-15,350,-581
155,1467,1194,-3951,69,285,16,-15,350,-581
156,1413,1178,-3945,74,351,17,-15,350,-581
157,1432,1215,-3957,58,419,1,-15,350,-581
158,1463,1204,-3971,55,435,-9,-15,350,-581
159,1480,1235,-3918,78,431,-14,-4,343,-586
160,1482,1183,-3881,78,404,-24,-4,343,-586
161,1460,1170,-3880,77,383,-29,-4,343,-586
162,1451,1171,-3857,55,364,-33,-4,343,-586
163,1451,1166,-3884,14,346,-23,-4,343,-586
164,1473,1170,-3885,18,325,-16,-4,343,-586
165,1448,1168,-3877,23,323,-8,-4,343,-586
166,1430,1146,-3819,49,318,6,-4,343,-586
167,1466,1139,-3853,44,334,15,-4,343,-586
168,1481,1115,-3825,10,289,3,-4,343,-586
169,1532,1147,-3868,-53,206,-1,-4,343,-586
170,1545,1175,-3862,-102,119,1,-4,343,-586
171,1488,1203,-3891,-109,83,-3,-4,343,-586
172,1513,1216,-3899,-82,66,4,-4,343,-586
173,1518,1200,-3909,-62,47,8,-4,343,-586
174,1507,1159,-3902,-62,24,9,-4,343,-586
175,1498,1118,-3930,-75,-2,10,-4,343,-586
176,1529,1130,-3947,-86,-19,16,2,334,-579
177,1519,1183,-3963,-85,-35,28,2,334,-579
178,1509,1167,-3908,-82,-56,21,2,334,-579
179,1520,1189,-3882,-94,-59,25,2,334,-579
180,1508,1195,-3834,-119,-64,13,2,334,-579
181,1493,1197,-3822,-130,-48,5,2,334,-579
182,1505,1216,-3815,-141,-35,3,2,334,-579
183,1484,1206,-3844,-128,-16,3,2,334,-579
184,1475,1241,-3864,-106,-12,6,2,334,-579
185,1492,1216,-3823,-78,-17,6,2,334,-579
186,1495,1191,-3844,-78,-24,11,2,334,-579
187,1484,1175,-3869,-70,-29,26,2,334,-579
188,1484,1183,-3843,-61,-24,37,2,334,-579
189,1500,1189,-3874,-42,-22,54,2,334,-579
190,1477,1139,-3871,-31,-26,63,2,334,-579
191,1461,1170,-3875,-37,-43,74,2,334,-579
192,1502,1167,-3898,-46,-53,76,-3,343,-585
193,1526,1113,-3930,-66,-74,83,-3,343,-585
194,1508,1129,-3994,-110,-85,104,-3,343,-585
195,1486,1158,-3957,-155,-116,95,-3,343,-585
196,1463,1185,-3932,-125,-93,103,-3,343,-585
197,1495,1183,-3964,-115,-107,108,-3,343,-585
198,1490,1171,-3916,-92,-106,109,-3,343,-585
199,1517,1146,-3887,-125,-150,111,-3,343,-585
200,1522,1136,-3886,-154,-165,116,-3,343,-585
201,1480,1208,-3873,-141,-131,115,-3,343,-585
202,1471,1204,-3854,-132,-113,113,-3,343,-585
203,1468,1235,-3850,-100,-78,112,-3,343,-585
204,1516,1205,-3834,-61,-76,117,-3,343,-585
205,1461,1220,-3846,-2,-67,118,-3,343,-585
206,1449,1176,-3919,-1,-65,111,-3,343,-585
207,1460,1173,-3925,-14,-46,108,-3,343,-585
208,1532,1150,-3902,-52,-51,105,1,340,-584
209,1498,1216,-3894,-78,-6,104,1,340,-584
210,1524,1244,-3894,-65,48,97,1,340,-584
211,1492,1255,-3896,-22,102,84,1,340,-584
212,1494,1241,-3836,32,186,75,1,340,-584
213,1450,1234,-3884,95,327,75,1,340,-584
214,1442,1276,-3802,195,568,56,1,340,-584
215,1466,1248,-3810,286,773,15,1,340,-584
216,1367,1268,-3726,390,1147,-2,1,340,-584
217,1245,1285,-3659,654,1818,29,1,340,-584
218,1311,1250,-3633,1044,2613,138,1,340,-584
219,1335,1225,-3788,1444,3491,133,1,340,-584
220,1411,1197,-3702,1624,4341,28,1,340,-584
221,1644,1128,-3763,1703,5035,-49,1,340,-584
222,1583,1239,-3649,1807,5571,-224,1,340,-584
223,1638,1235,-3750,2123,6360,-297,1,340,-584
224,1896,1025,-3768,2415,6982,-384,1,340,-584
225,2030,1038,-3803,2707,7561,-487,51,315,-584
226,2132,985,-3980,2964,8268,-588,51,315,-584
227,2338,912,-3976,2936,8954,-730,51,315,-584
228,2490,951,-4095,2981,9578,-930,51,315,-584
229,2713,950,-3997,3084,10169,-1102,51,315,-584
230,2851,1022,-4029,3271,10635,-1208,51,315,-584
231,4104,1002,-4343,4949,10135,-1017,51,315,-584
232,3449,1193,-4651,5256,10638,-1411,51,315,-584
233,3490,633,-3035,5445,11669,-1910,51,315,-584
234,3569,455,-2245,5166,12371,-1856,51,315,-584
235,2668,719,-2320,5189,14154,-1822,51,315,-584
236,3077,819,-2264,5142,15576,-1934,51,315,-584
237,4091,1145,-2703,4979,16068,-2101,51,315,-584
238,3055,1347,-2711,4702,16498,-2467,51,315,-584
239,4025,732,-2401,3831,16483,-2665,51,315,-584
240,3504,1236,-1765,3004,15967,-3031,258,253,-554
241,3332,954,-2809,3572,15945,-2184,258,253,-554
242,3325,647,-2849,3121,15733,-2035,258,253,-554
243,6058,130,-5861,2645,14268,-1820,258,253,-554
244,3478,424,-2366,2196,14848,-1341,258,253,-554
245,3675,462,-1988,1828,15048,-996,258,253,-554
246,3808,1001,-1906,1434,15317,-901,258,253,-554
247,3904,1038,-2011,1224,14833,-783,258,253,-554
248,3629,620,-1971,855,13705,-656,258,253,-554
249,3129,181,-1326,415,12776,-746,258,253,-554
250,2266,-7,-327,-122,13103,-643,258,253,-554
251,2030,307,155,-542,13728,-518,258,253,-554
252,2458,925,-225,-684,13697,-471,258,253,-554
253,2815,1093,-361,-634,12433,-254,258,253,-554
254,2780,1070,224,-65,8723,-5,258,253,-554
255,3365,1019,-2180,162,12654,62,258,253,-554
256,4842,686,-1373,343,11623,282,458,233,-382
257,5091,551,-1306,45,11032,102,458,233,-382
258,5285,569,-1221,-229,10845,-162,458,233,-382
259,5704,743,-1461,-85,10360,-264,458,233,-382
260,5661,632,-1516,-36,9317,-482,458,233,-382
261,5063,314,-1089,-366,8633,-915,458,233,-382
262,4593,389,-623,-675,8581,-1274,458,233,-382
263,4278,703,-692,-804,8252,-1434,458,233,-382
264,4157,1034,-771,-681,7510,-1262,458,233,-382
265,4186,957,-788,-431,6686,-1025,458,233,-382
266,4282,891,-874,-317,6023,-889,458,233,-382
267,4393,807,-912,-392,5363,-779,458,233,-382
268,4370,881,-669,-302,4672,-758,458,233,-382
269,4142,840,-536,-300,4153,-695,458,233,-382
270,3753,835,-395,-382,4087,-665,458,233,-382
271,3527,987,-265,-290,4068,-613,458,233,-382
272,3460,901,-371,-256,3884,-433,458,233,-382
273,3600,949,-415,-209,3541,-357,458,233,-382
274,3036,850,-53,-266,3729,-543,458,233,-382
275,2018,886,480,-508,4899,-650,458,233,-382
276,1866,1257,533,-389,5951,-284,458,233,-382
277,2676,1485,284,156,5879,126,458,233,-382
278,3553,1147,-116,385,5523,366,458,233,-382
279,4317,859,-132,373,5208,336,458,233,-382
280,4691,772,-126,400,4602,291,458,233,-382
281,4707,699,-64,408,3962,186,458,233,-382
282,4685,646,26,317,3472,22,458,233,-382
283,4717,684,45,362,2947,-28,458,233,-382
284,4633,646,-89,330,2411,-61,458,233,-382
285,4623,603,-65,263,1888,-187,458,233,-382
286,4485,582,-85,182,1406,-226,458,233,-382
287,4340,633,-115,69,966,-191,458,233,-382
288,4172,724,37,-17,613,-205,517,248,-183
289,4157,748,124,-27,259,-277,517,248,-183
290,4103,844,139,-51,-63,-259,517,248,-183
291,4048,831,243,-82,-326,-224,517,248,-183
292,3634,779,392,-147,-413,-240,517,248,-183
293,2790,710,542,-321,94,-431,517,248,-183
294,2304,945,509,-380,815,-456,517,248,-183
295,2429,1060,428,-282,1319,-308,517,248,-183
296,2879,1084,271,-233,1576,-231,517,248,-183
297,3529,1058,274,-115,1585,-124,517,248,-183
298,3808,940,338,-103,1520,-122,517,248,-183
299,3871,873,399,-120,1431,-152,517,248,-183
300,3942,814,510,-118,1355,-139,517,248,-183
301,4149,810,539,-137,1209,-131,517,248,-183
302,4306,905,638,-145,1017,-98,517,248,-183
303,4296,925,694,-172,857,-152,517,248,-183
304,4192,997,749,-140,682,-138,521,251,-157
305,4104,1053,709,-133,553,-132,521,251,-157
306,4010,1095,688,-91,462,-117,521,251,-157
307,4037,1162,669,-7,338,-19,521,251,-157
308,3988,1071,676,23,299,-31,521,251,-157
309,3745,1036,623,17,304,-11,521,251,-157
310,3674,1060,628,10,416,20,521,251,-157
311,3765,1057,591,49,407,142,521,251,-157
312,3995,991,536,71,317,204,521,251,-157
313,4093,934,592,53,187,239,521,251,-157
314,4038,916,643,9,104,217,521,251,-157
315,3814,896,760,-23,126,159,521,251,-157
316,3564,914,791,-67,296,101,521,251,-157
317,3602,1007,725,-70,482,135,521,251,-157
318,3791,1037,626,-10,538,221,521,251,-157
319,3994,953,568,-43,536,205,521,251,-157
320,4115,911,636,-27,421,250,513,243,-155
321,4088,871,697,-115,364,169,513,243,-155
322,4026,885,750,-115,345,99,513,243,-155
323,3913,899,767,-139,383,20,513,243,-155
324,4040,942,710,-82,322,57,513,243,-155
325,4112,911,739,-102,231,-17,513,243,-155
326,4074,949,760,-71,121,-13,513,243,-155
327,4052,967,827,-61,53,-18,513,243,-155
328,4015,932,888,-14,24,-26,513,243,-155
329,3841,944,899,-2,97,-33,513,243,-155
330,3866,1042,842,27,157,-22,513,243,-155
331,3976,1032,768,57,138,27,513,243,-155
332,3985,966,762,81,93,60,513,243,-155
333,3927,900,728,52,75,59,513,243,-155
334,3874,903,759,10,102,38,513,243,-155
335,3872,896,719,-21,136,-17,513,243,-155
336,3898,870,685,-48,175,-70,518,251,-157
337,4010,868,667,14,99,2,518,251,-157
338,3938,835,672,8,41,5,518,251,-157
339,3847,803,654,-12,42,-14,518,251,-157
340,3802,779,703,-36,88,-35,518,251,-157
341,3817,829,701,-24,113,-57,518,251,-157
342,3885,815,719,-30,126,-78,518,251,-157
343,3971,793,695,-22,93,-76,518,251,-157
344,4021,796,675,-53,17,-73,518,251,-157
345,3947,824,672,-77,-26,-81,518,251,-157
346,3883,819,741,-75,-21,-87,518,251,-157
347,3849,865,714,-80,-16,-82,518,251,-157
348,3914,853,702,-77,-30,-78,518,251,-157
349,3972,863,719,-94,-95,-86,518,251,-157
350,4007,896,774,-98,-155,-103,518,251,-157
351,3953,952,792,-76,-214,-116,518,251,-157
352,3955,933,769,-48,-250,-137,518,251,-157
353,3801,868,747,-53,-248,-149,523,251,-152
354,3685,908,723,-67,-197,-143,523,251,-152
355,3704,943,726,-54,-148,-105,523,251,-152
356,3787,916,681,-27,-123,-94,523,251,-152
357,3811,888,643,-27,-147,-102,523,251,-152
358,3805,856,617,-48,-166,-103,523,251,-152
359,3834,822,651,-64,-178,-116,523,251,-152
360,3871,815,698,-84,-201,-132,523,251,-152
361,3926,861,740,-87,-248,-147,523,251,-152
362,3992,918,703,-97,-290,-167,523,251,-152
363,4000,953,724,-95,-361,-194,523,251,-152
364,4047,936,685,-60,-439,-228,523,251,-152
365,3998,871,660,-67,-516,-245,523,251,-152
366,3984,859,606,-94,-599,-236,523,251,-152
367,4008,910,640,-118,-685,-213,523,251,-152
368,4092,891,575,-130,-806,-208,523,251,-152
369,4504,843,383,-108,-978,-49,512,251,-157
370,4584,751,544,-160,-1429,-171,512,251,-157
371,4270,774,499,-222,-1674,-268,512,251,-157
372,4203,856,454,-269,-1900,-172,512,251,-157
373,4203,946,407,-254,-2203,-98,512,251,-157
374,4253,962,313,-244,-2574,40,512,251,-157
375,4348,984,400,-213,-2891,96,512,251,-157
376,4351,924,391,-187,-3315,192,512,251,-157
377,4142,941,317,-61,-3839,247,512,251,-157
378,3392,1057,218,286,-4733,231,512,251,-157
379,3297,955,170,50,-4557,208,512,251,-157
380,3435,975,217,47,-4570,425,512,251,-157
381,3627,1116,244,157,-4635,494,512,251,-157
382,3677,1141,214,313,-4823,543,512,251,-157
383,3597,1000,87,324,-4911,484,512,251,-157
384,3476,908,103,296,-4875,559,512,251,-157
385,3650,850,100,223,-4723,649,508,256,-235
386,3892,832,-38,149,-4659,639,508,256,-235
387,4136,865,-60,110,-4650,550,508,256,-235
388,4171,877,-54,85,-4676,481,508,256,-235
389,4064,917,-64,33,-4739,432,508,256,-235
390,3970,956,-91,23,-4831,350,508,256,-235
391,3846,916,-90,-2,-4870,308,508,256,-235
392,3689,898,-204,-39,-4931,363,508,256,-235
393,3570,964,-140,-79,-4971,375,508,256,-235
394,3522,1009,-272,-134,-4990,389,508,256,-235
395,3505,976,-349,-115,-5050,394,508,256,-235
396,3494,956,-372,-82,-5245,394,508,256,-235
397,3419,1007,-475,-195,-5477,392,508,256,-235
398,3622,1346,-320,177,-5574,450,508,256,-235
399,3633,1246,-392,399,-5660,499,508,256,-235
400,3741,1191,-567,651,-5758,592,508,256,-235
401,3837,1102,-735,457,-6176,864,484,242,-321
402,3815,929,-924,279,-6496,903,484,242,-321
403,3827,1096,-815,138,-6508,578,484,242,-321
404,3946,1100,-732,202,-6239,676,484,242,-321
405,3733,878,-496,241,-6210,665,484,242,-321
406,3460,639,-636,185,-6231,542,484,242,-321
407,3331,276,-1226,384,-5982,883,484,242,-321
408,3642,564,-1080,17,-6124,762,484,242,-321
409,4027,817,-802,-370,-5883,561,484,242,-321
410,4040,673,-1104,-198,-5490,1061,484,242,-321
411,4217,779,-1288,-357,-5533,697,484,242,-321
412,4233,763,-1178,-108,-5377,598,484,242,-321
413,4297,459,-1604,5,-5407,704,484,242,-321
414,4374,603,-1466,76,-5690,506,484,242,-321
415,4409,582,-1358,84,-5682,398,484,242,-321
416,4243,456,-1771,-319,-5967,675,484,242,-321
417,4281,609,-1504,-504,-5957,645,429,227,-412
418,4051,628,-1617,-725,-5704,650,429,227,-412
419,3924,283,-1976,-1051,-5758,852,429,227,-412
420,3740,44,-2295,-1780,-6446,959,429,227,-412
421,3816,83,-2007,-2526,-7164,808,429,227,-412
422,3935,427,-1896,-3003,-7639,730,429,227,-412
423,3861,565,-1925,-3302,-7637,671,429,227,-412
424,3956,823,-1650,-3421,-7408,576,429,227,-412
425,3909,1050,-1633,-3267,-7301,420,429,227,-412
426,3466,931,-1369,-2895,-7207,433,429,227,-412
427,3282,914,-1285,-2568,-7041,483,429,227,-412
428,3304,991,-1695,-2336,-6935,583,429,227,-412
429,3351,949,-1807,-2280,-6881,581,429,227,-412
430,3408,928,-2045,-2225,-7031,632,429,227,-412
431,3515,1009,-2145,-1907,-6982,648,429,227,-412
432,3678,856,-2207,-1622,-7022,782,429,227,-412
433,3894,840,-2044,-1348,-7595,564,346,258,-498
434,3639,772,-2372,-1412,-8185,394,346,258,-498
435,3366,723,-2606,-1644,-8563,223,346,258,-498
436,3488,680,-2306,-1864,-8980,255,346,258,-498
437,3222,671,-2064,-2000,-9444,344,346,258,-498
438,2796,523,-1945,-2298,-9382,515,346,258,-498
439,2915,644,-1923,-2433,-9634,549,346,258,-498
440,3155,486,-1914,-2453,-10424,382,346,258,-498
441,3103,559,-2401,-2495,-11154,516,346,258,-498
442,3014,610,-2645,-2447,-11096,499,346,258,-498
443,3185,714,-2770,-2522,-11038,514,346,258,-498
444,3274,1063,-3063,-2367,-11071,526,346,258,-498
445,3295,1027,-3305,-2112,-10849,489,346,258,-498
446,3446,980,-3655,-2046,-10760,395,346,258,-498
447,3242,957,-3973,-1974,-10440,331,346,258,-498
448,3048,742,-3896,-2323,-10065,292,177,293,-576
449,2874,514,-3906,-2818,-9754,161,177,293,-576
450,2761,787,-3557,-2909,-9198,80,177,293,-576
451,2622,692,-3517,-2862,-8415,54,177,293,-576
452,2655,790,-3227,-2644,-7809,-27,177,293,-576
453,2497,635,-3068,-2476,-7252,-43,177,293,-576
454,2364,830,-3112,-2339,-6710,-47,177,293,-576
455,2065,944,-3087,-2050,-6062,-32,177,293,-576
456,2095,943,-3229,-1822,-5540,80,177,293,-576
457,2107,1038,-3337,-1486,-5095,44,177,293,-576
458,2184,1044,-3464,-1126,-4551,87,177,293,-576
459,2126,1025,-3597,-1068,-4216,128,177,293,-576
460,2066,1116,-3840,-1011,-4049,95,177,293,-576
461,2085,1145,-3812,-909,-3928,135,177,293,-576
462,2282,1140,-3928,-889,-3884,83,177,293,-576
463,2067,1091,-3976,-877,-3766,89,177,293,-576
464,1990,1080,-3953,-928,-3712,85,64,321,-584
465,1964,1028,-3931,-986,-3594,123,64,321,-584
466,1895,1154,-4086,-892,-3557,77,64,321,-584
467,1937,961,-4094,-804,-3543,110,64,321,-584
468,2045,1137,-4244,-794,-3649,63,64,321,-584
469,1855,1093,-4237,-687,-3494,86,64,321,-584
470,1912,1067,-4145,-795,-3536,55,64,321,-584
471,1832,1102,-4071,-851,-3381,50,64,321,-584
472,1858,1144,-4049,-928,-3408,19,64,321,-584
473,1740,1196,-3985,-970,-3391,-3,64,321,-584
474,1730,1176,-3900,-947,-3404,-33,64,321,-584
475,1640,1100,-3875,-902,-3408,-16,64,321,-584
476,1582,1094,-3988,-889,-3416,2,64,321,-584
477,1494,1091,-4019,-967,-3362,8,64,321,-584
478,1448,1146,-3873,-1094,-3333,0,64,321,-584
479,1386,1264,-3778,-1123,-3115,-3,64,321,-584
480,1345,1357,-3676,-964,-2950,5,-7,350,-579
481,1343,1334,-3737,-742,-2836,21,-7,350,-579
482,1329,1322,-3742,-560,-2726,46,-7,350,-579
483,1341,1213,-3735,-511,-2637,33,-7,350,-579
484,1323,1159,-3681,-575,-2620,35,-7,350,-579
485,1280,1203,-3613,-587,-2555,33,-7,350,-579
486,1249,1290,-3610,-522,-2406,34,-7,350,-579
487,1299,1301,-3563,-411,-2263,22,-7,350,-579
488,1315,1304,-3488,-300,-2166,32,-7,350,-579
489,1335,1232,-3448,-202,-2096,27,-7,350,-579
490,1312,1307,-3515,-128,-1959,26,-7,350,-579
491,1216,1318,-3617,-79,-1710,39,-7,350,-579
492,1288,1364,-3647,-36,-1425,39,-7,350,-579
493,1410,1398,-3670,-29,-1172,17,-7,350,-579
494,1468,1503,-3793,27,-968,-14,-7,350,-579
495,1506,1543,-3977,132,-812,-70,-7,350,-579
496,1497,1422,-4147,64,-772,-47,-45,355,-580
497,1293,1501,-4330,61,-811,-165,-45,355,-580
498,1494,1219,-4383,24,-829,-167,-45,355,-580
499,1362,1347,-4522,-86,-1052,-255,-45,355,-580
500,1563,1191,-4435,-47,-1050,-254,-45,355,-580
501,1454,1287,-4406,-180,-1120,-241,-45,355,-580
502,1252,1202,-4399,-282,-1165,-190,-45,355,-580
503,1254,1141,-4216,-469,-1370,-190,-45,355,-580
504,1125,1194,-4073,-497,-1389,-189,-45,355,-580
505,1081,1248,-3896,-444,-1273,-162,-45,355,-580
506,1004,1250,-3786,-350,-1162,-147,-45,355,-580
507,936,1297,-3785,-273,-1011,-121,-45,355,-580
508,946,1292,-3848,-194,-850,-102,-45,355,-580
509,959,1274,-3859,-176,-734,-83,-45,355,-580
510,927,1277,-3930,-170,-651,-73,-45,355,-580
511,922,1262,-3919,-192,-599,-60,-45,355,-580
512,920,1253,-3895,-204,-565,-52,-59,353,-577
513,909,1262,-3858,-196,-470,-34,-59,353,-577
514,878,1238,-3827,-185,-358,-27,-59,353,-577
515,930,1206,-3835,-168,-257,-11,-59,353,-577
516,944,1211,-3871,-171,-175,4,-59,353,-577
517,946,1226,-3912,-173,-97,27,-59,353,-577
518,1004,1232,-3972,-179,-43,52,-59,353,-577
519,1026,1247,-4036,-208,-4,63,-59,353,-577
520,1103,1295,-4109,-241,6,79,-59,353,-577
521,1118,1290,-4114,-274,6,77,-59,353,-577
522,1088,1344,-4204,-285,20,79,-59,353,-577
523,1097,1298,-4165,-264,16,101,-59,353,-577
524,1134,1244,-4156,-265,-29,169,-59,353,-577
525,1082,1160,-4147,-303,-159,252,-59,353,-577
526,1063,1271,-4114,-343,-245,225,-59,353,-577
527,1063,1347,-4018,-333,-248,226,-59,353,-577
528,1083,1414,-3859,-290,-163,216,-69,366,-569
529,1042,1454,-3740,-268,-57,172,-69,366,-569
530,1023,1426,-3634,-210,81,107,-69,366,-569
531,1001,1376,-3569,-84,259,81,-69,366,-569
532,953,1282,-3552,60,428,82,-69,366,-569
533,967,1219,-3558,185,593,119,-69,366,-569
534,959,1187,-3652,259,763,142,-69,366,-569
535,948,1172,-3792,262,920,159,-69,366,-569
536,971,1190,-3818,232,1076,177,-69,366,-569
537,910,1195,-3806,288,1369,170,-69,366,-569
538,796,1207,-4053,534,2041,226,-69,366,-569
539,841,1084,-3940,587,2831,345,-69,366,-569
540,950,1050,-3763,545,3467,457,-69,366,-569
541,855,1108,-3582,689,4303,580,-69,366,-569
542,820,1117,-3380,1155,5386,793,-69,366,-569
543,863,1088,-3254,1699,6560,1015,-69,366,-569
544,1066,1143,-3112,2223,7646,1180,-23,351,-581
545,1088,997,-3097,2497,8829,1187,-23,351,-581
546,1463,1187,-3253,2792,9861,1148,-23,351,-581
547,1797,1292,-3727,3174,10644,1066,-23,351,-581
548,2029,1128,-3960,3849,11698,1004,-23,351,-581
549,2375,721,-4026,4383,12980,821,-23,351,-581
550,2746,555,-4228,4514,13997,366,-23,351,-581
551,3111,604,-4679,4386,14899,-192,-23,351,-581
552,3829,633,-4912,4171,15353,-863,-23,351,-581
553,4288,721,-4914,4100,15817,-1548,-23,351,-581
554,4526,714,-4498,4178,16719,-2171,-23,351,-581
555,5557,1105,-3771,4390,16729,-2349,-23,351,-581
556,4989,1006,-3483,4943,16662,-2364,-23,351,-581
557,5295,957,-2837,5430,16309,-2652,-23,351,-581
558,5080,972,-2890,6188,15374,-3219,-23,351,-581
559,4450,1287,-849,5880,14685,-3720,230,265,-558
560,3508,1398,-1827,6129,16809,-3751,230,265,-558
561,3363,1284,-1531,5283,19067,-4835,230,265,-558
562,3009,1665,-2662,4029,22346,-5439,230,265,-558
563,3844,1325,-2692,2614,22900,-4539,230,265,-558
564,4260,1165,-2234,1391,21806,-3354,230,265,-558
565,4265,1772,-1661,1408,19788,-2243,230,265,-558
566,3359,1919,-1028,1712,18047,-1013,230,265,-558
567,1887,1323,-376,1606,17762,-292,230,265,-558
568,217,-173,526,1088,17609,-1047,230,265,-558
569,-707,-418,931,107,17156,-1117,230,265,-558
570,-550,531,1593,-230,16905,-45,230,265,-558
571,2086,1555,-145,-445,19273,132,230,265,-558
572,4203,3544,-291,579,21034,1164,230,265,-558
573,6799,2355,-807,2054,20277,1524,230,265,-558
574,8433,367,-1467,2625,18892,1259,230,265,-558
575,8097,-756,-1758,2087,17125,573,474,245,-327
576,7090,-980,-1929,701,15639,391,474,245,-327
577,6466,171,-1750,-99,13799,242,474,245,-327
578,5691,958,-1377,207,11696,354,474,245,-327
579,5067,968,-1047,591,10263,572,474,245,-327
580,4211,656,-765,884,9216,603,474,245,-327
581,3703,-63,-753,659,8469,413,474,245,-327
582,3299,-175,-292,142,8414,73,474,245,-327
583,3520,381,-22,32,8438,-208,474,245,-327
584,4341,808,-303,300,7728,-520,474,245,-327
585,4778,836,-394,527,6601,-988,474,245,-327
586,4673,771,-429,667,5753,-1082,474,245,-327
587,4407,520,-516,622,4988,-990,474,245,-327
588,3700,283,-37,454,4712,-1131,474,245,-327
589,5380,60,-917,26,2194,-2104,474,245,-327
590,4601,491,694,-660,3316,-1261,474,245,-327
591,2657,985,-295,-240,3807,-584,525,247,-174
592,2825,-402,-407,-461,3715,184,525,247,-174
593,3677,1887,-1181,-715,2589,-165,525,247,-174
594,4147,-2804,-1306,-4230,1941,1580,525,247,-174
595,3157,7818,289,2998,2228,-2201,525,247,-174
596,1958,-315,470,1053,2559,165,525,247,-174
597,2875,436,483,183,2497,616,525,247,-174
598,3686,1364,-223,440,1938,-281,525,247,-174
599,4610,-211,1097,-55,1950,43,525,247,-174
600,4569,1913,-206,232,1496,-469,525,247,-174
601,4724,-156,659,569,804,-389,525,247,-174
602,4242,1039,247,-611,674,7,525,247,-174
603,4506,2196,14,614,-115,-815,525,247,-174
604,3118,-171,312,-560,146,-452,525,247,-174
605,2914,1584,297,82,274,-730,525,247,-174
606,2786,1016,255,-79,743,-705,525,247,-174
607,3141,989,69,103,761,-603,525,247,-174
608,3415,794,142,-65,908,-508,525,247,-174
609,3532,1072,63,28,831,-419,525,247,-174
610,3442,819,188,64,746,-357,525,247,-174
611,3406,630,357,-78,826,-358,525,247,-174
612,3420,803,302,-267,829,-283,525,247,-174
613,3427,720,457,-387,889,-212,525,247,-174
614,3569,713,524,-439,921,-228,525,247,-174
615,3681,863,635,-451,925,-228,525,247,-174
616,3691,948,784,-425,897,-252,525,247,-174
617,3873,973,833,-343,849,-314,525,247,-174
618,3899,958,881,-268,768,-266,525,247,-174
619,3892,953,1003,-248,730,-202,525,247,-174
620,3988,989,934,-212,652,-283,525,247,-174
621,3800,1006,1094,-253,598,-319,525,247,-174
622,3736,987,1079,-306,621,-402,525,247,-174
623,3681,1119,1076,-325,667,-436,517,258,-127
624,3844,1157,1031,-378,623,-346,517,258,-127
625,3913,1198,996,-350,630,-283,517,258,-127
626,3948,1225,970,-226,510,-228,517,258,-127
627,3975,1198,998,-247,445,-174,517,258,-127
628,4004,1189,1100,-245,417,-146,517,258,-127
629,4040,1177,1164,-189,326,-139,517,258,-127
630,4115,1165,1167,-136,272,-159,517,258,-127
631,4160,1215,1202,-90,198,-179,517,258,-127
632,4109,1193,1243,-24,126,-248,517,258,-127
633,4095,1184,1268,54,62,-310,517,258,-127
634,4049,1179,1275,118,-4,-243,517,258,-127
635,4028,1155,1202,156,-44,-240,517,258,-127
636,3991,1135,1158,167,-50,-252,517,258,-127
637,3901,1115,1089,146,-56,-231,517,258,-127
638,3819,1136,1066,119,-14,-244,517,258,-127
639,3829,1103,1012,122,20,-236,520,263,-125
640,3823,1123,916,114,36,-197,520,263,-125
641,3859,1131,950,108,33,-149,520,263,-125
642,3891,1130,964,124,11,-99,520,263,-125
643,3912,1119,995,112,-10,-45,520,263,-125
644,3879,1114,1025,109,-29,1,520,263,-125
645,3834,1095,1056,118,-14,3,520,263,-125
646,3857,1045,1043,128,-19,-16,520,263,-125
647,3881,1060,1043,116,-12,-10,520,263,-125
648,3968,1053,1002,116,-26,-14,520,263,-125
649,3940,1059,1031,143,-73,-45,520,263,-125
650,3824,1030,1060,134,-99,-29,520,263,-125
651,3635,856,1001,78,-29,-27,520,263,-125
652,3647,931,944,56,41,-12,520,263,-125
653,3690,938,877,57,83,6,520,263,-125
654,3764,936,883,51,80,-2,520,263,-125
655,3758,925,886,33,64,-24,511,258,-117
656,3795,969,930,13,52,-22,511,258,-117
657,3781,979,943,7,43,-23,511,258,-117
658,3853,1007,982,45,9,-28,511,258,-117
659,3780,954,980,65,34,-44,511,258,-117
660,3769,934,911,90,-18,-48,511,258,-117
661,3814,979,965,79,-42,-57,511,258,-117
662,3801,905,1001,117,-79,-83,511,258,-117
663,3838,877,977,99,-93,-107,511,258,-117
664,3742,887,886,53,-45,-109,511,258,-117
665,3736,897,861,30,-42,-106,511,258,-117
666,3689,957,818,28,-49,-92,511,258,-117
667,3687,919,865,10,-38,-93,511,258,-117
668,3624,920,906,-45,17,-83,511,258,-117
669,3675,906,861,-55,35,-82,511,258,-117
670,3717,1016,924,-63,37,-78,511,258,-117
671,3690,974,896,-48,48,-103,513,266,-131
672,3691,960,933,-45,63,-112,513,266,-131
673,3733,957,928,-43,80,-101,513,266,-131
674,3760,930,943,-20,75,-104,513,266,-131
675,3768,859,941,-17,79,-122,513,266,-131
676,3769,862,894,-37,86,-138,513,266,-131
677,3769,887,915,-47,80,-137,513,266,-131
678,3810,883,943,-46,75,-141,513,266,-131
679,3877,947,964,-36,35,-126,513,266,-131
680,3860,957,969,-26,9,-127,513,266,-131
681,3873,975,979,-4,-15,-141,513,266,-131
682,3832,969,968,25,-41,-153,513,266,-131
683,3835,940,923,50,-59,-143,513,266,-131
684,3820,941,943,33,-90,-152,513,266,-131
685,3711,958,996,15,-51,-162,513,266,-131
686,3691,968,899,-15,-27,-161,513,266,-131
687,3716,1034,907,-13,-1,-146,513,266,-131
688,3718,1024,881,-23,21,-128,516,269,-126
689,3723,1002,867,-23,54,-134,516,269,-126
690,3708,1009,881,-27,58,-97,516,269,-126
691,3729,1030,893,-12,56,-55,516,269,-126
692,3791,1003,903,-26,46,-19,516,269,-126
693,3817,1056,942,-33,19,5,516,269,-126
694,3879,1018,954,-42,-8,11,516,269,-126
695,3841,1071,1042,-31,-41,44,516,269,-126
696,3846,1044,1063,3,-71,70,516,269,-126
697,3827,1023,965,8,-84,69,516,269,-126
698,3820,982,972,9,-114,69,516,269,-126
699,3882,972,919,-9,-129,50,516,269,-126
700,3844,1010,926,-12,-164,88,516,269,-126
701,3871,1032,886,-23,-212,98,516,269,-126
702,3842,1079,937,-10,-260,107,516,269,-126
703,3808,1018,916,37,-269,110,516,269,-126
704,3810,990,892,-28,-297,116,510,260,-122
705,3789,967,818,-98,-303,166,510,260,-122
706,3909,985,779,-113,-378,227,510,260,-122
707,3900,1099,892,-159,-458,316,510,260,-122
708,3904,1195,988,-35,-504,360,510,260,-122
709,3915,1132,974,44,-573,382,510,260,-122
710,3900,1001,901,34,-669,402,510,260,-122
711,4041,1019,751,21,-805,323,510,260,-122
712,4200,1036,721,94,-1032,244,510,260,-122
713,4054,1014,768,116,-1200,291,510,260,-122
714,4107,1060,708,120,-1331,267,510,260,-122
715,4116,863,716,49,-1544,240,510,260,-122
716,4058,897,730,-49,-1677,148,510,260,-122
717,3980,883,648,-85,-1796,103,510,260,-122
718,3868,999,640,-84,-1874,62,510,260,-122
719,3778,951,678,-89,-1909,111,510,260,-122
720,3900,933,599,-96,-1951,95,513,265,-153
721,3870,981,700,-97,-2028,119,513,265,-153
722,4050,1031,528,-57,-2147,49,513,265,-153
723,3858,1016,652,-36,-2216,76,513,265,-153
724,3934,951,556,-38,-2277,11,513,265,-153
725,3882,932,553,-75,-2354,17,513,265,-153
726,3913,976,506,-98,-2436,7,513,265,-153
727,3702,1014,601,-107,-2521,69,513,265,-153
728,4058,980,594,-31,-3160,461,513,265,-153
729,3270,1014,183,-247,-3569,207,513,265,-153
730,3531,985,616,-55,-2763,162,513,265,-153
731,4110,906,368,-122,-3032,220,513,265,-153
732,4371,908,293,-125,-3274,215,513,265,-153
733,4292,900,190,-200,-3908,128,513,265,-153
734,4077,862,201,-262,-4104,50,513,265,-153
735,3974,853,94,-274,-4199,71,513,265,-153
736,3955,847,42,-357,-4496,134,513,261,-200
737,3903,982,152,-388,-4598,54,512,261,-200
738,3876,901,101,-344,-4731,57,512,261,-200
739,3862,990,188,-355,-4757,3,512,261,-200
740,3901,997,-103,-395,-4793,-30,512,261,-200
741,3780,880,-64,-394,-4855,-59,512,261,-200
742,3690,907,-86,-387,-4796,-42,512,261,-200
743,3773,862,-215,-349,-4746,10,512,261,-200
744,3817,906,-184,-356,-4767,-20,512,261,-200
745,3776,799,-275,-430,-4870,-2,512,261,-200
746,3723,799,-380,-449,-4909,6,512,261,-200
747,3629,872,-311,-464,-4893,-27,512,261,-200
748,3610,913,-266,-463,-4847,-39,512,261,-200
749,3586,864,-321,-472,-4794,33,512,261,-200
750,3619,956,-350,-454,-4757,49,512,261,-200
751,3707,964,-360,-465,-4702,12,512,261,-200
752,3726,1029,-395,-440,-4591,214,512,261,-200
753,3934,1031,-533,-352,-4515,291,512,261,-200
754,3841,1031,-519,-223,-4675,174,512,261,-200
755,3532,1320,-277,-243,-4780,-503,512,261,-200
756,3701,883,-301,-156,-4680,-161,512,261,-200
757,3752,708,-575,-198,-4731,157,512,261,-200
758,3729,644,-250,-491,-4713,187,512,261,-200
759,3666,926,-407,-642,-4620,236,512,261,-200
760,3729,1332,-218,-507,-4655,-110,512,261,-200
761,3303,1199,-354,-3,-4131,-260,512,261,-200
762,3726,1007,-456,-280,-4229,-49,512,261,-200
763,3674,1027,-114,-367,-4308,-441,512,261,-200
764,3707,999,-455,-374,-4202,-210,512,261,-200
765,3729,826,-1117,-108,-4198,147,512,261,-200
766,3680,1179,-424,-160,-4431,-422,512,261,-200
767,3764,883,-971,-33,-4271,32,512,261,-200
768,3699,1175,-489,-121,-4543,-587,446,271,-363
769,3907,776,-1643,224,-4178,73,446,271,-363
770,4202,1275,-702,-14,-4779,-653,446,271,-363
771,3872,1501,-617,160,-4735,-627,446,271,-363
772,3917,1346,-1609,218,-4972,35,446,271,-363
773,3579,940,-909,727,-5101,-205,446,271,-363
774,3475,967,-1391,488,-5029,-108,446,271,-363
775,3831,1150,-1302,256,-5272,-40,446,271,-363
776,3636,945,-881,262,-4889,-73,446,271,-363
777,3716,1250,-1386,16,-4959,-8,446,271,-363
778,3672,790,-1491,149,-4710,551,446,271,-363
779,3410,231,279,-491,-4673,429,446,271,-363
780,2885,1110,-1332,-1099,-3798,374,446,271,-363
781,3513,1412,-1905,-501,-3892,747,446,271,-363
782,3921,1167,-1609,-339,-3882,1009,446,271,-363
783,4515,1215,-1988,11,-4171,1305,446,271,-363
784,4980,1604,-2956,913,-5386,1402,404,266,-434
785,5046,1136,-2781,1396,-6477,1272,404,266,-434
786,4595,420,-2698,937,-6780,1247,404,266,-434
787,4554,88,-2658,7,-7233,1345,404,266,-434
788,4312,-121,-2614,-998,-8080,1311,404,266,-434
789,4124,-198,-2486,-1986,-8719,1066,404,266,-434
790,3813,270,-2131,-2639,-8978,619,404,266,-434
791,3419,327,-1960,-3510,-7892,-54,404,266,-434
792,3665,1279,-2149,-3408,-7352,239,404,266,-434
793,4339,1314,-1046,-2609,-7045,710,404,266,-434
794,4062,978,-1601,-2535,-6422,355,404,266,-434
795,4479,712,-1567,-2371,-6664,115,404,266,-434
796,3970,642,-1958,-2288,-6507,119,404,266,-434
797,3783,776,-1901,-2196,-6125,93,404,266,-434
798,3460,1045,-1994,-2121,-5580,-57,404,266,-434
799,3442,1121,-1921,-2022,-5117,67,404,266,-434
800,3478,964,-1893,-2137,-4999,209,312,275,-499
801,3234,999,-1741,-2241,-5007,41,312,275,-499
802,3070,1087,-1804,-2118,-4697,10,312,275,-499
803,2996,1156,-1751,-2110,-4461,-4,312,275,-499
804,2922,1305,-1825,-1683,-4099,-22,312,275,-499
805,2961,1219,-1924,-1651,-3828,-1,312,275,-499
806,3082,1286,-2063,-1619,-3759,32,312,275,-499
807,3038,1394,-2287,-1277,-3667,4,312,275,-499
808,3075,1312,-2563,-930,-3766,98,312,275,-499
809,3328,1293,-2824,-611,-4082,212,312,275,-499
810,3570,1079,-3042,-530,-4500,300,312,275,-499
811,3943,898,-3014,-678,-5206,305,312,275,-499
812,3726,315,-3194,-1494,-5707,288,312,275,-499
813,3561,682,-3106,-1922,-5875,233,312,275,-499
814,3526,830,-2947,-2022,-5865,282,312,275,-499
815,3110,1042,-2899,-2071,-6095,345,312,309,-534
816,2884,1154,-2680,-2071,-6275,465,227,309,-534
817,2800,1146,-2606,-2084,-6609,499,227,309,-534
818,2525,858,-2609,-2087,-6978,526,227,309,-534
819,2547,561,-2672,-2327,-7303,600,227,309,-534
820,2043,1575,-2774,-1851,-6702,429,227,309,-534
821,1836,1394,-2700,-1785,-5897,359,227,309,-534
822,2254,1919,-2524,-1337,-5655,412,227,309,-534
823,2380,1509,-2837,-786,-5447,509,227,309,-534
824,2743,1435,-3276,-762,-5744,540,227,309,-534
825,2858,1353,-3662,-645,-6163,588,227,309,-534
826,3205,1126,-3990,-853,-6582,601,227,309,-534
827,3150,1172,-4152,-888,-6740,415,227,309,-534
828,3103,822,-4096,-981,-6638,488,227,309,-534
829,3030,536,-3851,-1268,-6758,536,227,309,-534
830,2890,412,-3640,-1754,-7307,572,227,309,-534
831,2355,540,-3446,-2141,-7857,561,123,336,-571
832,2144,672,-3124,-2478,-8126,793,123,336,-571
833,2255,817,-3216,-2687,-8382,782,123,336,-571
834,1925,1026,-3012,-2649,-8070,792,123,336,-571
835,1797,1217,-3090,-2727,-7623,722,123,336,-571
836,1664,1273,-2900,-2640,-7233,773,123,336,-571
837,1629,1157,-2847,-2543,-7050,737,123,336,-571
838,1628,1112,-2933,-2507,-6872,626,123,336,-571
839,1615,1564,-3186,-2148,-6382,682,123,336,-571
840,1577,1323,-3200,-1907,-5964,536,123,336,-571
841,1418,1526,-2995,-1688,-5511,504,123,336,-571
842,1859,1344,-3027,-1602,-5371,618,123,336,-571
843,1418,2160,-3594,-1042,-4971,356,123,336,-571
844,1768,1309,-3566,-932,-4644,336,123,336,-571
845,2170,1536,-3794,-830,-4826,274,123,336,-571
846,1946,1557,-3909,-631,-4594,246,123,336,-571
847,2003,1321,-3998,-929,-4732,164,123,336,-571
848,1676,1377,-4183,-858,-4524,123,123,336,-571
849,2242,1414,-4151,-768,-4593,120,123,336,-571
850,2046,1523,-4212,-482,-4574,64,123,336,-571
851,1809,1427,-4174,-504,-4794,0,123,336,-571
852,1654,1376,-4188,-483,-4957,-56,123,336,-571
853,1744,1425,-4238,-382,-4864,-31,123,336,-571
854,1484,1287,-4210,-455,-4596,-27,123,336,-571
855,1420,1244,-4187,-639,-4442,-51,123,336,-571
856,1429,1396,-3950,-688,-4106,18,123,336,-571
857,1141,1427,-3880,-823,-3829,-5,123,336,-571
858,1149,1396,-3716,-863,-3544,37,123,336,-571
859,1166,1519,-3691,-908,-3430,13,123,336,-571
860,1021,1474,-3717,-894,-3364,5,123,336,-571
861,982,1405,-3703,-860,-3203,18,123,336,-571
862,938,1493,-3704,-778,-3072,52,-69,388,-558
863,931,1462,-3721,-630,-2818,99,-69,388,-558
864,811,1551,-3820,-578,-2563,85,-69,388,-558
865,801,1516,-3772,-588,-2300,72,-69,388,-558
866,856,1522,-3823,-587,-2070,107,-69,388,-558
867,870,1626,-3875,-552,-1815,126,-69,388,-558
868,851,1576,-3882,-507,-1692,88,-69,388,-558
869,862,1586,-3861,-438,-1559,87,-69,388,-558
870,884,1490,-3856,-346,-1506,73,-69,388,-558
871,843,1573,-3943,-278,-1355,27,-69,388,-558
872,939,1570,-4015,-147,-1237,62,-69,388,-558
873,925,1458,-4132,-107,-1122,93,-69,388,-558
874,946,1404,-4159,-135,-1036,82,-69,388,-558
875,865,1369,-4174,-151,-971,91,-69,388,-558
876,877,1352,-4188,-101,-822,140,-69,388,-558
877,854,1459,-4215,-49,-586,192,-69,388,-558
878,893,1355,-4182,-24,-380,231,-93,395,-555
879,817,1397,-4146,-65,-142,214,-93,395,-555
880,890,1408,-4074,-51,2,229,-93,395,-555
881,873,1521,-4044,-26,100,186,-93,395,-555
882,891,1573,-4034,32,190,133,-93,395,-555
883,882,1563,-4005,80,339,118,-93,395,-555
884,816,1570,-4011,7,487,80,-93,395,-555
885,825,1587,-3944,-55,657,51,-93,395,-555
886,760,1618,-3949,-103,825,23,-93,395,-555
887,754,1606,-3833,-49,1084,35,-93,395,-555
888,781,1569,-3800,50,1300,106,-93,395,-555
889,703,1577,-3814,127,1566,109,-93,395,-555
890,742,1495,-3813,268,1859,161,-93,395,-555
891,753,1490,-3855,392,2140,204,-93,395,-555
892,837,1429,-3902,464,2394,242,-93,395,-555
893,851,1408,-3841,508,2641,270,-93,395,-555
894,899,1409,-3849,551,2899,287,-93,381,-550
895,900,1456,-3797,595,3174,304,-70,381,-550
896,941,1462,-3718,644,3482,323,-70,381,-550
897,970,1421,-3668,754,3796,357,-70,381,-550
898,1028,1453,-3539,866,4092,387,-70,381,-550
899,1032,1451,-3432,1005,4438,413,-70,381,-550
900,1090,1399,-3336,1157,4825,460,-70,381,-550
901,1083,1379,-3275,1375,5257,463,-70,381,-550
902,1149,1417,-3291,1664,5702,440,-70,381,-550
903,1179,1530,-3472,2158,6204,314,-70,381,-550
904,1220,1441,-3337,2657,7010,256,-70,381,-550
905,1334,1393,-3367,3049,7870,189,-70,381,-550
906,1448,1356,-3225,3375,8777,37,-70,381,-550
907,1672,1318,-3117,3605,9514,-117,-70,381,-550
908,1857,1441,-3106,3975,10157,-275,-70,381,-550
909,1944,1577,-3092,4494,10699,-472,-70,381,-550
910,2167,1575,-3133,4996,11289,-647,51,340,-580
911,2348,1546,-3026,5497,11703,-844,51,340,-580
912,2566,1435,-3023,6007,11943,-945,51,340,-580
913,2632,1242,-3026,6383,12217,-1052,51,340,-580
914,3187,1141,-3157,6878,12292,-1032,51,340,-580
915,3704,908,-2569,7139,12050,-1268,51,340,-580
916,3657,747,-2508,7165,11732,-1382,51,340,-580
917,3479,905,-2672,7145,11618,-1608,51,340,-580
918,3815,1090,-2523,7107,10765,-1792,51,340,-580
919,3086,1198,-2831,7066,10896,-1735,51,340,-580
920,2696,1061,-3215,7080,11735,-1813,51,340,-580
921,3122,779,-3172,6700,12290,-1950,51,340,-580
922,3730,590,-3713,6353,12633,-1922,51,340,-580
923,3861,362,-3650,5879,13045,-1971,51,340,-580
924,4154,180,-3877,5586,13167,-2032,51,340,-580
925,4454,-111,-4100,5423,13287,-2032,51,340,-580
926,4358,-567,-4034,5223,14500,-2033,267,224,-565
927,4919,-871,-2971,4716,16099,-2368,267,224,-565
928,4890,-936,-2451,3838,17234,-2797,267,224,-565
929,4204,-671,-1898,2088,18542,-3117,267,224,-565
930,5202,430,-1890,1356,17949,-3139,267,224,-565
931,5165,778,-2368,913,17043,-2935,267,224,-565
932,5404,981,-2518,878,15766,-2480,267,224,-565
933,5202,750,-2332,606,14991,-2480,267,224,-565
934,5017,936,-1643,408,14697,-2524,267,224,-565
935,4212,377,-1381,-12,15407,-2174,267,224,-565
936,4565,437,-1515,-284,15583,-1817,267,224,-565
937,4571,446,-1469,-497,14592,-1689,267,224,-565
938,4425,408,-1137,-947,13518,-1750,267,224,-565
939,4372,950,-1208,-1075,12789,-1917,267,224,-565
940,3800,1022,-902,-1099,12391,-1703,267,224,-565
941,3769,1518,-1098,-1041,12280,-1351,464,225,-358
942,4231,1710,-1263,-306,11279,-909,464,225,-358
943,3998,978,-1056,-13,10352,-503,464,225,-358
944,3645,619,-630,41,10021,-472,464,225,-358
945,3580,649,-439,-90,10055,-475,464,225,-358
946,3892,888,-424,-24,9711,-278,464,225,-358
947,4466,1000,-384,121,8909,-116,464,225,-358
948,4547,1083,-138,308,8200,-208,464,225,-358
949,4232,796,-35,417,7819,-389,464,225,-358
950,3965,505,40,382,7778,-485,464,225,-358
951,3745,535,177,369,7993,-423,464,225,-358
952,3907,597,163,363,7711,-378,464,225,-358
953,4142,686,98,233,7245,-458,464,225,-358
954,4585,955,267,266,6576,-662,464,225,-358
955,4487,945,85,398,5997,-918,464,225,-358
956,4357,849,38,339,5503,-1171,464,225,-358
957,4002,917,229,322,5242,-1469,515,240,-221
958,3573,929,207,327,5280,-1530,515,240,-221
959,3691,908,-17,428,4912,-1362,515,240,-221
960,4011,861,-133,528,4207,-1355,515,240,-221
961,4065,676,-185,485,3764,-1411,515,240,-221
962,4084,604,-318,453,3535,-1419,515,240,-221
963,4164,418,-466,354,3206,-1470,515,240,-221
964,4060,402,-457,244,2818,-1576,515,240,-221
965,3647,455,-357,51,2663,-1650,515,240,-221
966,3575,722,-105,-39,2642,-1685,515,240,-221
967,3665,976,41,-2,2535,-1767,515,240,-221
968,3673,988,122,101,2440,-1864,515,240,-221
969,3899,1127,141,169,2194,-1918,515,240,-221
970,3903,1026,63,265,2018,-1835,515,240,-221
971,4031,873,70,300,1776,-1659,515,240,-221
972,4205,912,93,277,1469,-1562,515,240,-221
973,4046,876,82,289,1152,-1442,515,271,-163
974,3734,855,161,202,956,-1318,515,271,-163
975,3470,948,231,144,917,-1145,515,271,-163
976,3435,1014,278,189,852,-1022,515,271,-163
977,3407,1018,319,163,852,-910,515,271,-163
978,3413,986,386,125,830,-879,515,271,-163
979,3257,1056,384,107,875,-858,515,271,-163
980,3147,1063,352,134,972,-743,515,271,-163
981,3346,1124,378,113,1002,-690,515,271,-163
982,3409,1135,454,139,988,-725,515,271,-163
983,3242,1150,489,139,1045,-721,515,271,-163
984,3304,1199,533,184,1139,-665,515,271,-163
985,3511,1141,561,218,1148,-547,515,271,-163
986,3735,1089,519,211,1071,-462,515,271,-163
987,4095,1124,530,202,882,-438,515,271,-163
988,4127,1133,591,184,636,-487,515,271,-163
989,3964,1076,652,180,425,-530,503,281,-139
990,3895,1124,673,125,292,-538,503,281,-139
991,3813,1103,636,119,176,-509,503,281,-139
992,3881,1127,560,93,36,-421,503,281,-139
993,4069,1154,562,72,-159,-342,503,281,-139
994,3950,1059,596,24,-349,-336,503,281,-139
995,3357,1031,595,-72,-314,-343,503,281,-139
996,3103,1177,610,-129,-96,-325,503,281,-139
997,3187,1272,587,-118,124,-312,503,281,-139
998,3266,1293,628,-56,240,-350,503,281,-139
999,3181,1247,663,-60,427,-365,503,281,-139
1000,3221,1232,625,-51,636,-345,503,281,-139
1001,3483,1278,694,-34,744,-319,503,281,-139
1002,3799,1220,726,-25,717,-304,503,281,-139
1003,3929,1221,871,-65,652,-296,503,281,-139
1004,4012,1339,957,-83,569,-324,503,281,-139
1005,3982,1364,943,-49,469,-352,495,292,-149
1006,3964,1307,925,-18,357,-314,495,292,-149
1007,3983,1288,865,-48,260,-249,495,292,-149
1008,4017,1279,878,-81,132,-188,495,292,-149
1009,4002,1306,899,-96,5,-157,495,292,-149
1010,4011,1330,923,-81,-109,-132,495,292,-149
1011,4082,1302,888,-66,-231,-102,495,292,-149
1012,4132,1292,888,-54,-375,-97,495,292,-149
1013,4093,1267,959,-76,-525,-96,495,292,-149
1014,3809,1210,981,-103,-581,-99,495,292,-149
1015,3442,1191,1013,-111,-480,-97,495,292,-149
1016,3174,1285,954,-115,-227,-54,495,292,-149
1017,3304,1351,864,-74,16,-15,495,292,-149
1018,3542,1338,758,-16,127,-17,495,292,-149
1019,3713,1226,732,-13,151,-11,495,292,-149
1020,3803,1119,712,-56,130,-24,495,292,-149
1021,3769,1146,761,-92,104,-35,503,296,-144
1022,3664,1129,820,-119,155,-38,503,296,-144
1023,3659,1208,875,-125,209,-50,503,296,-144
1024,3753,1256,849,-121,251,-58,503,296,-144
1025,3807,1265,895,-128,217,-75,503,296,-144
1026,3795,1277,891,-100,170,-88,503,296,-144
1027,3825,1266,975,-88,122,-67,503,296,-144
1028,3833,1284,1002,-90,71,-60,503,296,-144
1029,3852,1289,1064,-67,45,-73,503,296,-144
1030,3827,1315,1046,-35,11,-90,503,296,-144
1031,3858,1311,967,2,-51,-87,503,296,-144
1032,3852,1299,910,5,-112,-92,503,296,-144
1033,3671,1207,811,-9,-106,-98,503,296,-144
1034,3533,1232,808,-26,-63,-110,503,296,-144
1035,3546,1232,844,-47,0,-65,503,296,-144
1036,3687,1290,860,-46,-24,-47,503,296,-144
1037,3719,1269,812,-52,-76,-25,499,292,-139
1038,3742,1276,834,-89,-95,8,499,292,-139
1039,3754,1305,827,-80,-131,16,499,292,-139
1040,3733,1297,899,-58,-173,24,499,292,-139
1041,3686,1236,846,-57,-171,43,499,292,-139
1042,3651,1260,844,-66,-158,52,499,292,-139
1043,3586,1182,807,-69,-120,48,499,292,-139
1044,3477,1176,791,-74,-48,35,499,292,-139
1045,3490,1181,807,-83,33,14,499,292,-139
1046,3684,1271,828,-82,68,8,499,292,-139
1047,3818,1296,855,-64,14,-10,499,292,-139
1048,3828,1236,901,-51,-43,-33,499,292,-139
1049,3748,1228,927,-79,-60,-40,499,292,-139
1050,3752,1259,949,-83,-70,-41,499,292,-139
1051,3756,1307,916,-69,-90,-19,499,292,-139
1052,3728,1301,857,-56,-113,-6,499,292,-139
1053,3644,1265,817,-72,-132,0,499,292,-139
1054,3476,1258,811,-92,-69,20,496,300,-142
1055,3501,1292,853,-98,15,64,496,300,-142
1056,3646,1335,913,-88,59,76,496,300,-142
1057,3832,1322,939,-76,37,45,496,300,-142
1058,3872,1332,970,-62,-21,22,496,300,-142
1059,3791,1335,955,-51,-63,-11,496,300,-142
1060,3680,1281,965,-40,-54,-12,496,300,-142
1061,3650,1261,949,-42,-13,-6,496,300,-142
1062,3749,1310,906,-43,-15,-4,496,300,-142
1063,3782,1294,844,-30,-39,-18,496,300,-142
1064,3757,1262,823,-35,-66,-20,496,300,-142
1065,3728,1233,817,-58,-75,-25,496,300,-142
1066,3680,1266,871,-75,-63,-22,496,300,-142
1067,3634,1276,847,-61,-32,-13,496,300,-142
1068,3649,1264,874,-64,-5,0,496,300,-142
1069,3721,1284,818,-70,-6,16,496,300,-142
1070,3771,1261,847,-68,-34,27,502,298,-147
1071,3817,1262,820,-76,-63,35,502,298,-147
1072,3787,1255,850,-73,-103,48,502,298,-147
1073,3780,1268,859,-72,-133,66,502,298,-147
1074,3764,1214,879,-71,-168,82,502,298,-147
1075,3740,1279,873,-84,-181,88,502,298,-147
1076,3724,1285,866,-72,-190,85,502,298,-147
1077,3746,1309,907,-51,-187,114,502,298,-147
1078,3797,1336,934,-26,-230,120,502,298,-147
1079,3831,1330,884,-6,-268,122,502,298,-147
1080,3834,1288,846,-12,-315,139,502,298,-147
1081,3815,1283,840,-4,-349,155,502,298,-147
1082,3801,1289,813,-5,-412,185,502,298,-147
1083,3839,1267,780,2,-466,214,502,298,-147
1084,3838,1261,792,-2,-530,239,502,298,-147
1085,3936,1263,775,-14,-608,268,502,298,-147
1086,3907,1220,750,-28,-694,305,495,287,-143
1087,3924,1235,688,-32,-791,351,495,287,-143
1088,3979,1245,739,-45,-886,383,495,287,-143
1089,4043,1245,728,-62,-1015,396,495,287,-143
1090,4106,1275,654,-25,-1182,394,495,287,-143
1091,4090,1237,660,-33,-1343,422,495,287,-143
1092,4101,1208,596,-21,-1524,469,495,287,-143
1093,4133,1198,550,-40,-1688,520,495,287,-143
1094,4164,1210,518,-43,-1915,547,495,287,-143
1095,4119,1167,476,-42,-2105,565,495,287,-143
1096,4151,1174,497,-50,-2301,563,495,287,-143
1097,4117,1102,468,-52,-2520,551,495,287,-143
1098,4190,1084,443,-159,-2628,499,495,287,-143
1099,3970,1084,420,-94,-2978,266,495,287,-143
1100,3723,1143,204,-140,-2994,440,495,287,-143
1101,3831,1109,329,-170,-3071,563,495,287,-143
1102,3782,1136,228,-154,-3163,608,498,283,-193
1103,3746,1110,178,-146,-3227,659,498,283,-193
1104,3636,1072,122,-184,-3319,755,498,283,-193
1105,3800,947,115,-307,-3875,1123,498,283,-193
1106,3031,1203,-187,-619,-4057,1168,498,283,-193
1107,3194,1217,283,-313,-3678,1356,498,283,-193
1108,2934,1167,7,-46,-4288,999,498,283,-193
1109,2667,1125,-201,-170,-4348,1172,498,283,-193
1110,2958,1123,21,-306,-4079,1604,498,283,-193
1111,3043,1220,-100,-171,-4083,1784,498,283,-193
1112,3179,1161,-269,36,-4139,1816,498,283,-193
1113,3355,1021,-211,115,-4235,1848,498,283,-193
1114,3445,979,-289,134,-4359,1953,498,283,-193
1115,3519,913,-390,127,-4502,2044,498,283,-193
1116,3711,831,-428,74,-4681,2060,498,283,-193
1117,3918,771,-516,-38,-4919,1939,498,283,-193
1118,4181,743,-506,-160,-5073,1734,501,258,-268
1119,4352,738,-464,-301,-5248,1452,501,258,-268
1120,4351,803,-501,-388,-5382,1176,501,258,-268
1121,3948,317,66,-712,-5615,689,501,258,-268
1122,3871,957,-978,-782,-5470,933,501,258,-268
1123,3897,848,-742,-775,-5964,986,501,258,-268
1124,3749,871,-685,-860,-6437,918,501,258,-268
1125,3718,934,-727,-917,-6795,821,501,258,-268
1126,3844,917,-696,-1029,-6916,757,501,258,-268
1127,3945,912,-630,-1101,-6906,666,501,258,-268
1128,3900,978,-652,-1091,-6956,660,501,258,-268
1129,3730,1050,-683,-1008,-7059,750,501,258,-268
1130,3542,1025,-763,-1070,-7250,919,501,258,-268
1131,3486,1015,-857,-999,-7341,1031,501,258,-268
1132,3515,1081,-788,-894,-7515,1237,501,258,-268
1133,3509,1173,-848,-878,-7673,1370,501,258,-268
1134,3678,1119,-821,-805,-7772,1346,459,237,-369
1135,3716,1008,-885,-774,-7781,1234,459,237,-369
1136,3661,1041,-1000,-770,-7985,1081,459,237,-369
1137,3450,931,-951,-968,-8343,809,459,237,-369
1138,3280,807,-913,-1201,-8732,-79,459,237,-369
1139,3336,801,-1174,-1428,-9093,-336,459,237,-369
1140,3233,854,-1217,-1780,-9215,-182,459,237,-369
1141,3142,965,-1255,-1831,-9431,-5,459,237,-369
1142,3113,922,-1303,-1773,-9148,97,459,237,-369
1143,3399,1045,-1624,-1603,-9025,145,459,237,-369
1144,3590,985,-1930,-1571,-8756,289,459,237,-369
1145,3863,925,-2061,-1797,-8457,322,459,237,-369
1146,4002,1013,-2199,-1921,-8372,376,459,237,-369
1147,4229,1015,-2111,-2055,-8573,388,459,237,-369
1148,4331,955,-2037,-1924,-9009,227,459,237,-369
1149,4166,850,-2005,-1876,-9499,147,459,237,-369
1150,3438,880,-2243,-1977,-9445,124,350,260,-487
1151,3588,936,-2131,-2004,-9318,250,350,260,-487
1152,3574,1098,-2020,-1913,-9338,456,350,260,-487
1153,3300,1016,-2024,-1726,-9227,702,350,260,-487
1154,3466,850,-1965,-1669,-9416,769,350,260,-487
1155,3384,777,-2096,-1591,-9719,703,350,260,-487
1156,3307,704,-2257,-1743,-9873,566,350,260,-487
1157,3189,468,-2176,-1975,-10033,366,350,260,-487
1158,3057,562,-2161,-2189,-9949,334,350,260,-487
1159,2959,732,-2134,-2284,-9762,377,350,260,-487
1160,2899,923,-2148,-2279,-9489,461,350,260,-487
1161,2944,1261,-2369,-2038,-9105,590,350,260,-487
1162,2988,1490,-2417,-1505,-8826,681,350,260,-487
1163,3029,1235,-2385,-1152,-8850,723,350,260,-487
1164,3154,1177,-2541,-859,-9148,727,350,260,-487
1165,3019,1091,-2877,-701,-9152,879,198,289,-572
1166,3089,1094,-3314,-458,-8850,973,198,289,-572
1167,3164,1167,-3438,-88,-8510,966,198,289,-572
1168,3122,1029,-3557,127,-8091,912,198,289,-572
1169,3227,949,-3547,192,-7815,896,198,289,-572
1170,3185,769,-3540,73,-7649,788,198,289,-572
1171,3207,750,-3611,-49,-7515,778,198,289,-572
1172,2968,686,-3583,-91,-7331,678,198,289,-572
1173,2939,582,-3400,-221,-7278,718,198,289,-572
1174,2903,632,-3608,-368,-6953,974,198,289,-572
1175,2701,272,-3676,-589,-6942,795,198,289,-572
1176,2506,423,-3638,-925,-6745,862,198,289,-572
1177,2414,482,-3756,-1001,-6485,847,198,289,-572
1178,2346,567,-3908,-1017,-6272,800,198,289,-572
1179,2356,553,-3848,-981,-6320,775,198,289,-572
1180,2346,515,-3991,-1001,-6542,676,198,289,-572
1181,2356,617,-4338,-1003,-6660,737,70,288,-601
1182,2177,497,-4570,-1036,-6655,645,70,288,-601
1183,2209,456,-4443,-1103,-6672,645,70,288,-601
1184,2125,495,-4399,-1175,-6648,626,70,288,-601
1185,2088,570,-4222,-1247,-6605,608,70,288,-601
1186,2017,605,-4131,-1244,-6459,597,70,288,-601
1187,1981,646,-4074,-1308,-6163,635,70,288,-601
1188,2194,386,-4015,-1659,-6185,779,70,288,-601
1189,2174,604,-3938,-1934,-6080,751,70,288,-601
1190,1573,916,-4177,-1897,-5757,699,70,288,-601
1191,1656,963,-4121,-1699,-5418,605,70,288,-601
1192,1861,1071,-4032,-1180,-5289,534,70,288,-601
1193,1858,1108,-4170,-1022,-5255,511,70,288,-601
1194,1716,1123,-4443,-1046,-5065,465,70,288,-601
1195,1724,893,-4555,-1255,-4948,422,70,288,-601
1196,1651,1080,-4550,-1275,-4570,388,70,288,-601
1197,1737,1004,-4523,-1534,-4490,327,-52,319,-596
1198,1787,1118,-4593,-1623,-4397,304,-52,319,-596
1199,1682,1153,-4556,-1626,-4296,320,-52,319,-596
1200,1502,1120,-4507,-1641,-4185,316,-52,319,-596
1201,1396,1123,-4398,-1661,-4047,306,-52,319,-596
1202,1271,1159,-4285,-1703,-3919,234,-52,319,-596
1203,1306,1220,-4111,-1642,-3820,190,-52,319,-596
1204,1284,1282,-3979,-1560,-3839,117,-52,319,-596
1205,1148,1345,-3947,-1416,-3784,62,-52,319,-596
1206,1122,1371,-3840,-1240,-3637,14,-52,319,-596
1207,1064,1347,-3879,-1059,-3372,-51,-52,319,-596
1208,991,1286,-4016,-933,-3184,-89,-52,319,-596
1209,983,1234,-4043,-907,-2994,-105,-52,319,-596
1210,883,1186,-4200,-911,-2828,-117,-52,319,-596
1211,850,1188,-4313,-878,-2700,-140,-52,319,-596
1212,969,989,-4351,-836,-2676,-166,-120,354,-583
1213,989,958,-4447,-870,-2882,-167,-120,354,-583
1214,793,1010,-4648,-943,-2938,-113,-120,354,-583
1215,924,739,-4410,-1240,-2978,3,-120,354,-583
1216,1513,1280,-4474,-1488,-2902,19,-120,354,-583
1217,1123,1478,-4336,-1411,-2599,55,-120,354,-583
1218,561,1386,-4142,-1390,-2289,37,-120,354,-583
1219,633,1321,-4011,-1198,-2153,43,-120,354,-583
1220,716,1407,-3994,-1067,-2091,38,-120,354,-583
1221,624,1339,-4100,-1064,-1988,45,-120,354,-583
1222,448,1377,-4189,-1060,-1693,50,-120,354,-583
1223,603,1323,-3927,-1024,-1479,34,-120,354,-583
1224,664,1375,-3778,-960,-1419,6,-120,354,-583
1225,530,1386,-3753,-830,-1295,4,-120,354,-583
1226,516,1430,-3710,-773,-1122,14,-120,354,-583
1227,491,1375,-3663,-745,-939,39,-120,354,-583
1228,516,1373,-3649,-721,-774,76,-153,364,-563
1229,433,1484,-3668,-583,-558,106,-153,364,-563
1230,390,1535,-3652,-499,-369,122,-153,364,-563
1231,417,1507,-3730,-417,-232,111,-153,364,-563
1232,444,1521,-3788,-295,-151,109,-153,364,-563
1233,411,1561,-4002,-188,-88,108,-153,364,-563
1234,437,1443,-4156,-87,-53,101,-153,364,-563
1235,467,1409,-4289,-93,-87,104,-153,364,-563
1236,468,1305,-4271,-86,-132,115,-153,364,-563
1237,458,1293,-4194,-52,-161,138,-153,364,-563
1238,472,1262,-4196,-28,-181,174,-153,364,-563
1239,442,1244,-4128,-37,-141,215,-153,364,-563
1240,391,1250,-4054,-84,-67,261,-153,364,-563
1241,411,1241,-3986,-122,24,290,-153,364,-563
1242,421,1273,-3910,-94,137,331,-153,364,-563
1243,495,1179,-3801,-151,132,357,-153,364,-563
1244,564,1474,-3744,64,387,403,-159,370,-557
1245,313,1406,-4019,-57,519,399,-159,370,-557
1246,404,1414,-3894,46,805,394,-159,370,-557
1247,758,1600,-3790,36,890,358,-159,370,-557
1248,810,1672,-3882,91,1117,332,-159,370,-557
1249,733,1665,-3991,204,1252,304,-159,370,-557
1250,723,1600,-4121,227,1505,302,-159,370,-557
1251,755,1581,-4171,232,1758,272,-159,370,-557
1252,782,1567,-4204,113,2042,251,-159,370,-557
1253,783,1546,-4204,109,2467,255,-159,370,-557
1254,721,1524,-4177,248,3006,268,-159,370,-557
1255,600,1420,-4223,552,3772,347,-159,370,-557
1256,657,1276,-4144,760,4456,476,-159,370,-557
1257,717,1075,-4083,882,5034,625,-159,370,-557
1258,618,958,-3987,1145,5817,782,-159,370,-557
1259,591,960,-3796,1589,6922,958,-159,370,-557
1260,650,882,-3643,2035,8204,1043,-97,364,-578
1261,744,789,-3561,2364,9472,974,-97,364,-578
1262,904,711,-3567,2565,10563,760,-97,364,-578
1263,1100,868,-3612,2840,11643,541,-97,364,-578
1264,1304,938,-3640,3198,12866,349,-97,364,-578
1265,1537,1030,-3507,3748,14371,141,-97,364,-578
1266,1897,984,-3344,4267,16041,-120,-97,364,-578
1267,2244,968,-3003,4681,17816,-653,-97,364,-578
1268,2954,1109,-2607,4979,18688,-1140,-97,364,-578
1269,3324,1127,-2544,5039,18663,-1594,-97,364,-578
1270,3947,1915,-2190,5270,18045,-1856,-97,364,-578
1271,4775,1757,-2449,6049,17428,-2112,-97,364,-578
1272,4210,2004,-2675,7180,17514,-2845,-97,364,-578
1273,4617,1817,-2642,7869,16834,-3555,-97,364,-578
1274,3908,1291,-2914,7768,16807,-3962,-97,364,-578
1275,3448,1187,-3438,7274,17508,-4374,-97,364,-578
1276,4517,1029,-4123,6761,17742,-4534,-97,364,-578
1277,4870,867,-4611,5911,18366,-4695,-97,364,-578
1278,5451,511,-4300,5310,18345,-4698,-97,364,-578
1279,5349,32,-4079,4755,18689,-4412,-97,364,-578
1280,5504,346,-3763,4171,19024,-4202,-97,364,-578
1281,5375,363,-3584,3593,18715,-3991,-97,364,-578
1282,5367,378,-3100,2734,18332,-3738,-97,364,-578
1283,5165,572,-2549,2014,17841,-3320,-97,364,-578
1284,5449,612,-2426,1647,17177,-3110,-97,364,-578
1285,5229,364,-1927,881,16965,-3079,-97,364,-578
1286,4175,711,-1400,254,17629,-2838,-97,364,-578
1287,3735,966,-1150,-1,17910,-2258,-97,364,-578
1288,3326,1074,-611,-178,18149,-1811,-97,364,-578
1289,3125,1267,48,-469,18333,-1621,-97,364,-578
1290,2882,1326,109,-743,18805,-1065,-97,364,-578
1291,3385,1617,-237,-462,18276,-662,438,252,-389
1292,4059,1784,-835,66,16979,-290,438,252,-389
1293,4632,1481,-1147,468,15127,-237,438,252,-389
1294,4792,1067,-1337,829,13360,-92,438,252,-389
1295,4648,603,-1260,947,11737,-4,438,252,-389
1296,3864,329,-1195,618,10397,-299,438,252,-389
1297,2985,155,-908,138,9992,-336,438,252,-389
1298,2766,380,-633,-131,9906,-68,438,252,-389
1299,3276,790,-640,-131,9404,21,438,252,-389
1300,3758,1089,-780,332,8223,-295,438,252,-389
1301,3412,791,-876,433,7398,-774,438,252,-389
1302,3041,758,-657,305,7322,-1009,438,252,-389
1303,2894,813,-646,407,7328,-1028,438,252,-389
1304,3196,899,-527,491,6947,-966,438,252,-389
1305,3600,1001,-300,546,6403,-1062,438,252,-389
1306,3828,952,-278,646,5812,-1260,438,252,-389
1307,3991,931,-232,594,5352,-1393,511,260,-223
1308,4158,918,-34,491,4868,-1638,511,260,-223
1309,3954,911,-83,445,4509,-1897,511,260,-223
1310,3933,932,85,430,4093,-1967,511,260,-223
1311,3803,943,121,370,3766,-1839,511,260,-223
1312,3822,905,53,434,3465,-1767,511,260,-223
1313,3571,683,-139,341,3264,-1735,511,260,-223
1314,3458,694,-144,195,3092,-1732,511,260,-223
1315,3359,973,-153,106,2972,-1655,511,260,-223
1316,3285,1016,-272,178,2711,-1633,511,260,-223
1317,3361,1018,-360,211,2449,-1624,511,260,-223
1318,3412,1035,-518,236,2270,-1548,511,260,-223
1319,3393,806,-554,232,2074,-1386,511,260,-223
1320,3335,726,-481,92,1948,-1250,511,260,-223
1321,3349,848,-336,14,1877,-1161,511,260,-223
1322,3396,1008,-169,-6,1797,-1106,511,260,-223
1323,3584,1078,89,17,1646,-1087,501,283,-159
1324,3748,1165,229,77,1419,-1088,501,283,-159
1325,3753,1102,288,117,1241,-1044,501,283,-159
1326,3811,1083,358,103,1067,-978,501,283,-159
1327,3872,1058,368,84,832,-930,501,283,-159
1328,3841,1080,386,68,624,-878,501,283,-159
1329,3644,1113,418,36,539,-815,501,283,-159
1330,3643,1192,440,37,418,-778,501,283,-159
1331,3444,1176,508,44,350,-727,501,283,-159
1332,3259,1108,515,21,416,-689,501,283,-159
1333,3195,1108,383,-15,561,-669,501,283,-159
1334,3334,1209,392,-65,691,-610,501,283,-159
1335,3503,1248,406,-86,674,-562,501,283,-159
1336,3462,1229,404,-103,670,-540,501,283,-159
1337,3199,1300,500,-142,828,-545,501,283,-159
1338,3082,1442,554,-160,1069,-493,501,283,-159
1339,3217,1485,659,-97,1173,-444,490,299,-145
1340,3501,1415,711,-71,1194,-373,490,299,-145
1341,3773,1425,772,-73,1133,-346,490,299,-145
1342,4015,1365,800,-85,981,-317,490,299,-145
1343,4092,1405,900,-105,794,-311,490,299,-145
1344,4007,1416,954,-106,642,-337,490,299,-145
1345,3915,1438,887,-107,529,-322,490,299,-145
1346,3920,1490,897,-87,417,-293,490,299,-145
1347,3956,1533,887,-75,299,-258,490,299,-145
1348,3961,1485,932,-51,153,-201,490,299,-145
1349,3967,1478,931,-41,17,-153,490,299,-145
1350,4000,1416,996,-56,-113,-134,490,299,-145
1351,3837,1385,966,-82,-175,-152,490,299,-145
1352,3721,1436,989,-123,-164,-194,490,299,-145
1353,3523,1476,949,-123,-87,-202,490,299,-145
1354,3316,1478,899,-115,84,-222,490,299,-145
1355,3206,1464,822,-132,321,-266,497,310,-139
1356,3324,1489,855,-125,505,-312,497,310,-139
1357,3611,1493,894,-91,601,-299,497,310,-139
1358,3760,1411,891,-82,593,-263,497,310,-139
1359,3829,1369,914,-114,569,-246,497,310,-139
1360,3930,1359,979,-167,522,-232,497,310,-139
1361,3929,1391,963,-208,484,-255,497,310,-139
1362,3932,1437,982,-183,384,-288,497,310,-139
1363,3840,1396,929,-187,319,-317,497,310,-139
1364,3631,1380,980,-190,313,-337,497,310,-139
1365,3537,1450,1028,-208,359,-352,497,310,-139
1366,3649,1547,1098,-153,398,-358,497,310,-139
1367,3818,1589,1132,-79,339,-330,497,310,-139
1368,3917,1523,1119,-38,208,-263,497,310,-139
1369,3971,1442,1118,-48,74,-190,497,310,-139
1370,3924,1460,1040,-52,-87,-144,497,310,-139
1371,3892,1474,1066,-57,-169,-99,487,308,-122
1372,3857,1437,1007,-41,-273,-88,487,308,-122
1373,3860,1464,964,-22,-390,-77,487,308,-122
1374,3864,1417,890,-26,-494,-70,487,308,-122
1375,3763,1338,928,-45,-591,-108,487,308,-122
1376,3247,1230,1003,-86,-510,-187,487,308,-122
1377,2812,1324,981,-116,-187,-154,487,308,-122
1378,2911,1428,864,-75,165,-23,487,308,-122
1379,3391,1401,845,-39,299,6,487,308,-122
1380,3685,1334,846,-53,249,-55,487,308,-122
1381,3684,1316,857,-92,210,-84,487,308,-122
1382,3628,1295,918,-92,214,-70,487,308,-122
1383,3613,1306,952,-92,234,-81,487,308,-122
1384,3639,1290,841,-94,222,-85,487,308,-122
1385,3666,1289,873,-105,198,-81,487,308,-122
1386,3578,1266,860,-121,187,-92,487,308,-122
1387,3361,1220,806,-174,254,-131,483,314,-136
1388,3389,1379,940,-219,400,-209,483,314,-136
1389,3550,1544,1019,-126,420,-271,483,314,-136
1390,3802,1477,1098,-51,343,-235,483,314,-136
1391,3940,1356,1091,-78,192,-192,483,314,-136
1392,3906,1331,1112,-127,57,-178,483,314,-136
1393,3781,1401,1139,-162,-32,-158,483,314,-136
1394,3708,1455,1146,-151,-77,-119,483,314,-136
1395,3701,1514,1021,-130,-124,-80,483,314,-136
1396,3655,1508,1035,-103,-178,-49,483,314,-136
1397,3689,1455,881,-88,-223,-28,483,314,-136
1398,3685,1437,849,-74,-247,-19,483,314,-136
1399,3698,1439,873,-78,-276,-3,483,314,-136
1400,3747,1398,863,-65,-320,6,483,314,-136
1401,3620,1365,945,-100,-327,-38,483,314,-136
1402,3497,1347,982,-159,-258,-143,483,314,-136
1403,3340,1472,992,-144,-136,-211,487,321,-137
1404,3349,1533,964,-90,13,-188,487,321,-137
1405,3459,1501,885,-60,97,-145,487,321,-137
1406,3580,1450,864,-85,107,-137,487,321,-137
1407,3593,1423,873,-124,102,-140,487,321,-137
1408,3592,1477,886,-119,110,-130,487,321,-137
1409,3600,1509,920,-111,129,-111,487,321,-137
1410,3621,1471,929,-111,134,-109,487,321,-137
1411,3511,1505,990,-135,135,-126,487,321,-137
1412,3433,1559,999,-120,203,-113,487,321,-137
1413,3516,1617,1052,-59,263,-91,487,321,-137
1414,3647,1591,1080,-9,228,-51,487,321,-137
1415,3756,1495,1131,-26,146,-31,487,321,-137
1416,3780,1464,1175,-74,60,-46,487,321,-137
1417,3706,1492,1185,-92,20,-45,487,321,-137
1418,3598,1538,1190,-99,34,-14,487,321,-137
1419,3593,1569,1072,-82,35,25,484,314,-127
1420,3616,1570,1008,-74,20,48,484,314,-127
1421,3651,1520,967,-75,10,67,484,314,-127
1422,3618,1501,934,-61,-6,79,484,314,-127
1423,3621,1475,970,-53,-18,85,484,314,-127
1424,3639,1443,933,-54,-41,90,484,314,-127
1425,3577,1441,1007,-75,-23,74,484,314,-127
1426,3480,1448,985,-104,54,28,484,314,-127
1427,3543,1530,988,-87,112,-11,484,314,-127
1428,3609,1452,949,-59,128,-27,484,314,-127
1429,3701,1410,931,-83,102,-20,484,314,-127
1430,3756,1376,950,-124,69,-20,484,314,-127
1431,3736,1431,994,-137,30,-25,484,314,-127
1432,3704,1431,1006,-123,-2,-25,484,314,-127
1433,3689,1458,1002,-118,-26,-23,484,314,-127
1434,3652,1407,956,-116,-47,-28,484,314,-127
1435,3661,1413,916,-122,-61,-17,482,318,-134
1436,3651,1398,942,-113,-82,-26,482,318,-134
1437,3592,1458,959,-118,-82,-13,482,318,-134
1438,3566,1477,991,-98,-60,3,482,318,-134
1439,3602,1522,1052,-66,-47,21,482,318,-134
1440,3700,1480,1042,-54,-82,42,482,318,-134
1441,3791,1423,1065,-63,-135,57,482,318,-134
1442,3780,1447,1037,-75,-214,45,482,318,-134
1443,3731,1418,1019,-80,-258,56,482,318,-134
1444,3677,1408,988,-88,-279,76,482,318,-134
1445,3602,1407,985,-89,-279,88,482,318,-134
1446,3519,1387,961,-98,-258,83,482,318,-134
1447,3352,1422,954,-105,-156,64,482,318,-134
1448,3292,1444,930,-98,-7,65,482,318,-134
1449,3463,1449,881,-73,87,71,482,318,-134
1450,3634,1434,910,-60,85,47,482,318,-134
1451,3636,1364,971,-81,74,14,482,318,-134
1452,3609,1408,987,-92,90,7,486,323,-132
1453,3616,1412,975,-94,112,0,486,323,-132
1454,3631,1433,1007,-96,119,1,486,323,-132
1455,3699,1478,990,-76,86,3,486,323,-132
1456,3676,1465,993,-77,55,11,486,323,-132
1457,3645,1428,975,-83,40,15,486,323,-132
1458,3544,1438,977,-96,38,21,486,323,-132
1459,3388,1454,1042,-99,90,12,486,323,-132
1460,3283,1485,1003,-81,224,21,486,323,-132
1461,3355,1490,999,-47,325,36,486,323,-132
1462,3527,1471,959,-30,355,67,486,323,-132
1463,3726,1419,953,-46,318,81,486,323,-132
1464,3881,1367,1041,-98,220,65,486,323,-132
1465,3876,1405,1061,-113,107,27,486,323,-132
1466,3733,1447,1062,-117,54,14,486,323,-132
1467,3662,1425,1093,-119,42,31,486,323,-132
1468,3675,1424,1017,-122,41,33,483,316,-125
1469,3631,1441,934,-109,27,33,483,316,-125
1470,3651,1439,949,-97,8,25,483,316,-125
1471,3645,1427,971,-98,8,26,483,316,-125
1472,3645,1398,998,-90,0,17,483,316,-125
1473,3677,1387,1001,-85,-10,6,483,316,-125
1474,3740,1389,1041,-92,-21,-3,483,316,-125
1475,3786,1447,1085,-90,-62,-30,483,316,-125
1476,3755,1462,1102,-70,-115,-45,483,316,-125
1477,3688,1462,1098,-65,-135,-39,483,316,-125
1478,3653,1461,1014,-65,-150,-29,483,316,-125
1479,3622,1455,1028,-64,-153,-32,483,316,-125
1480,3464,1445,971,-72,-95,-35,483,316,-125
1481,3301,1459,931,-72,30,-15,483,316,-125
1482,3385,1476,874,-61,146,3,483,316,-125
1483,3514,1462,833,-44,197,26,483,316,-125
1484,3629,1435,894,-62,192,20,482,314,-130
1485,3662,1409,988,-70,154,7,482,314,-130
1486,3682,1460,996,-78,146,16,482,314,-130
1487,3711,1465,1066,-64,116,13,482,314,-130
1488,3720,1453,1101,-60,81,20,482,314,-130
1489,3731,1460,1100,-65,38,18,482,314,-130
1490,3686,1424,1104,-70,7,12,482,314,-130
1491,3508,1416,1055,-76,44,-9,482,314,-130
1492,3336,1416,1008,-75,145,-10,482,314,-130
1493,3343,1435,961,-58,251,18,482,314,-130
1494,3511,1441,942,-39,291,32,482,314,-130
1495,3712,1413,983,-35,268,21,482,314,-130
1496,3769,1401,1015,-56,205,19,482,314,-130
1497,3735,1418,1022,-67,160,0,482,314,-130
1498,3752,1422,1049,-81,103,0,482,314,-130
1499,3679,1463,1046,-81,106,15,482,314,-130
1500,3679,1466,993,-83,71,35,482,314,-130
1501,3653,1465,950,-85,40,64,488,320,-132
1502,3684,1467,963,-89,26,62,488,320,-132
1503,3672,1421,989,-88,7,60,488,320,-132
1504,3689,1419,1026,-99,-28,36,488,320,-132
1505,3670,1431,988,-88,-55,21,488,320,-132
1506,3646,1402,1062,-94,-58,23,488,320,-132
1507,3635,1429,1019,-93,-63,16,488,320,-132
1508,3644,1455,1002,-88,-73,6,488,320,-132
1509,3648,1450,1005,-82,-94,-7,488,320,-132
1510,3626,1474,994,-68,-100,-8,488,320,-132
1511,3632,1448,1002,-56,-106,0,488,320,-132
1512,3651,1446,960,-59,-118,-4,488,320,-132
1513,3655,1464,947,-57,-144,4,488,320,-132
1514,3632,1452,903,-61,-171,7,488,320,-132
1515,3617,1425,972,-68,-205,16,488,320,-132
1516,3330,1372,1112,-95,-163,1,488,320,-132
1517,3098,1427,1089,-128,81,33,484,311,-124
1518,3297,1540,1063,-81,263,52,484,311,-124
1519,3613,1542,1005,-18,251,53,484,311,-124
1520,3734,1371,1001,-39,161,31,484,311,-124
1521,3711,1368,1062,-74,120,12,484,311,-124
1522,3682,1389,1060,-68,114,-1,484,311,-124
1523,3675,1398,1010,-49,109,-8,484,311,-124
1524,3725,1410,1013,-35,41,-15,484,311,-124
1525,3707,1396,997,-58,66,0,484,311,-124
1526,3646,1350,941,-61,48,-4,484,311,-124
1527,3631,1411,929,-42,27,-1,484,311,-124
1528,3613,1407,927,-43,22,-2,484,311,-124
1529,3639,1391,946,-47,8,1,484,311,-124
1530,3636,1368,954,-54,-5,7,484,311,-124
1531,3662,1392,1038,-57,-40,13,484,311,-124
1532,3706,1414,1035,-60,-68,27,484,311,-124
1533,3642,1436,1019,-62,-85,35,481,315,-128
1534,3589,1412,1023,-68,-79,48,481,315,-128
1535,3554,1440,969,-77,-66,69,481,315,-128
1536,3573,1463,966,-77,-56,76,481,315,-128
1537,3600,1453,953,-66,-55,76,481,315,-128
1538,3616,1438,923,-64,-52,91,481,315,-128
1539,3613,1454,928,-59,-56,95,481,315,-128
1540,3629,1429,963,-56,-57,94,481,315,-128
1541,3621,1416,954,-57,-67,101,481,315,-128
1542,3638,1405,962,-59,-98,98,481,315,-128
1543,3654,1357,959,-71,-116,101,481,315,-128
1544,3648,1398,1040,-86,-149,81,481,315,-128
1545,3670,1442,1019,-93,-181,35,481,315,-128
1546,3615,1458,1018,-85,-205,11,481,315,-128
1547,3602,1438,1017,-81,-211,16,481,315,-128
1548,3509,1433,1011,-95,-181,19,481,315,-128
1549,3483,1421,1011,-96,-132,12,481,315,-128
1550,3447,1423,936,-83,-68,18,489,317,-132
1551,3469,1435,953,-77,-4,31,489,317,-132
1552,3520,1460,934,-68,33,48,489,317,-132
1553,3561,1456,898,-65,44,46,489,317,-132
1554,3597,1425,975,-60,45,45,489,317,-132
1555,3577,1433,980,-62,52,50,489,317,-132
1556,3588,1459,991,-58,45,66,489,317,-132
1557,3629,1456,1022,-53,35,86,489,317,-132
1558,3643,1453,1061,-63,20,107,489,317,-132
1559,3653,1435,1053,-68,-11,131,489,317,-132
1560,3657,1421,1094,-76,-35,158,489,317,-132
1561,3727,1429,1069,-98,-69,166,489,317,-132
1562,3795,1450,1112,-90,-122,141,489,317,-132
1563,3725,1448,1105,-83,-156,115,489,317,-132
1564,3651,1435,1086,-78,-142,87,489,317,-132
1565,3559,1397,1029,-63,-95,65,489,317,-132
1566,3536,1412,953,-71,-42,73,486,311,-126
1567,3560,1428,975,-66,18,73,486,311,-126
1568,3580,1433,984,-63,43,61,486,311,-126
1569,3613,1429,984,-56,80,64,486,311,-126
1570,3660,1421,1015,-46,86,68,486,311,-126
1571,3703,1406,1001,-49,86,61,486,311,-126
1572,3693,1387,989,-54,71,52,486,311,-126
1573,3693,1413,997,-61,68,59,486,311,-126
1574,3720,1388,969,-64,72,58,486,311,-126
1575,3702,1401,970,-65,57,44,486,311,-126
1576,3694,1427,1000,-58,46,29,486,311,-126
1577,3668,1368,967,-55,42,10,486,311,-126
1578,3634,1375,949,-54,31,0,486,311,-126
1579,3652,1324,944,-58,34,2,486,311,-126
1580,3694,1367,931,-64,21,-4,486,311,-126
1581,3654,1367,979,-68,8,-5,486,311,-126
1582,3612,1372,992,-67,-5,-3,484,310,-129
1583,3602,1388,967,-70,-3,18,484,310,-129
1584,3626,1388,999,-62,-11,27,484,310,-129
1585,3590,1390,1054,-71,-25,39,484,310,-129
1586,3523,1394,1051,-73,3,50,484,310,-129
1587,3521,1415,1084,-68,59,72,484,310,-129
1588,3646,1419,1062,-54,58,86,484,310,-129
1589,3708,1411,1018,-54,23,89,484,310,-129
1590,3708,1376,1031,-60,-20,92,484,310,-129
1591,3637,1343,1064,-80,-19,76,484,310,-129
1592,3616,1394,995,-86,-3,70,484,310,-129
1593,3645,1414,1030,-78,6,68,484,310,-129
1594,3668,1425,1019,-62,14,65,484,310,-129
1595,3662,1412,1010,-53,7,68,484,310,-129
1596,3660,1410,1008,-48,12,60,484,310,-129
1597,3696,1415,979,-45,6,54,484,310,-129
1598,3688,1397,1007,-46,7,54,484,310,-129
1599,3730,1398,1020,-49,-20,42,492,315,-131
1600,3707,1422,1018,-46,-30,37,492,315,-131
1601,3710,1377,1001,-41,-56,24,492,315,-131
1602,3681,1394,952,-51,-62,18,492,315,-131
1603,3659,1394,952,-48,-62,14,492,315,-131
1604,3661,1393,966,-55,-73,14,492,315,-131
1605,3649,1403,921,-58,-85,14,492,315,-131
1606,3648,1394,913,-65,-94,28,492,315,-131
1607,3596,1366,955,-65,-99,39,492,315,-131
1608,3510,1405,991,-85,-55,35,492,315,-131
1609,3423,1432,1035,-89,33,34,492,315,-131
1610,3522,1457,961,-73,99,28,492,315,-131
1611,3612,1442,1005,-51,97,47,492,315,-131
1612,3628,1384,1006,-49,72,28,492,315,-131
1613,3578,1386,1033,-86,80,13,492,315,-131
1614,3612,1417,1004,-92,93,9,492,315,-131
1615,3586,1445,1048,-71,99,24,489,307,-125
1616,3597,1424,1048,-69,105,27,489,307,-125
1617,3666,1408,1005,-80,98,36,489,307,-125
1618,3614,1422,1017,-85,85,41,489,307,-125
1619,3648,1403,1008,-81,71,45,489,307,-125
1620,3621,1400,1007,-79,52,56,489,307,-125
1621,3642,1362,994,-89,40,64,489,307,-125
1622,3687,1379,943,-102,19,65,489,307,-125
1623,3718,1377,982,-101,-18,49,489,307,-125
1624,3676,1365,993,-91,-42,28,489,307,-125
1625,3628,1367,951,-95,-54,23,489,307,-125
1626,3610,1382,977,-85,-51,24,489,307,-125
1627,3619,1342,941,-82,-49,21,489,307,-125
1628,3638,1354,956,-87,-50,24,489,307,-125
1629,3670,1355,921,-78,-67,28,489,307,-125
1630,3724,1357,916,-70,-116,48,489,307,-125
1631,3769,1357,917,-66,-207,84,489,307,-125
1632,3730,1369,909,-72,-290,130,489,307,-125
1633,3662,1371,860,-87,-376,131,489,307,-125
1634,3604,1358,918,-106,-413,142,489,307,-125
1635,3612,1391,933,-110,-425,160,489,307,-125
1636,3666,1376,870,-89,-429,210,489,307,-125
1637,3747,1331,856,-83,-498,283,489,307,-125
1638,3807,1291,761,-80,-645,357,489,307,-125
1639,3763,1293,756,-118,-797,465,489,307,-125
1640,3739,1295,803,-152,-909,553,489,307,-125
1641,3775,1358,750,-108,-1034,593,489,307,-125
1642,3949,1308,685,-93,-1204,634,489,307,-125
1643,4038,1226,712,-141,-1387,742,489,307,-125
1644,4163,1259,492,-69,-1604,801,489,307,-125
1645,4192,1151,565,-105,-1935,782,489,307,-125
1646,4058,1196,454,-144,-2179,856,489,307,-125
1647,3901,1176,417,-184,-2331,978,489,307,-125
1648,3868,1191,330,-242,-2404,1083,489,307,-125
1649,4073,982,569,-330,-2576,751,489,307,-125
1650,3789,1092,430,-332,-2780,684,489,307,-125
1651,3852,1302,338,-397,-2679,930,489,307,-125
1652,4026,1317,394,-281,-2815,992,489,307,-125
1653,4059,1154,288,-77,-2963,1091,489,307,-125
1654,4295,776,305,270,-3359,1836,489,307,-125
1655,4200,1243,79,71,-4392,954,489,307,-125
1656,2784,968,-1262,-688,-7073,1023,489,307,-125
1657,3146,1090,539,-803,-6394,595,489,307,-125
1658,3189,1273,358,-601,-5561,730,489,307,-125
1659,3561,1409,218,-552,-5076,857,489,307,-125
1660,4032,1388,293,-522,-5394,764,489,307,-125
1661,3914,1193,173,-525,-5833,691,489,307,-125
1662,3866,1168,35,-529,-6032,571,489,307,-125
1663,3875,1257,113,-509,-6100,513,492,279,-226
1664,3971,1191,37,-468,-6073,636,492,279,-226
1665,4015,1264,28,-427,-5954,753,492,279,-226
1666,4149,1223,-6,-394,-5952,751,492,279,-226
1667,4040,1245,-103,-322,-6039,866,492,279,-226
1668,3866,1243,-238,-207,-6360,1072,492,279,-226
1669,3761,1219,-348,-310,-6732,1161,492,279,-226
1670,3748,1178,-368,-448,-7076,1026,492,279,-226
1671,3580,1167,-396,-578,-7288,848,492,279,-226
1672,3616,1244,-281,-556,-7599,723,492,279,-226
1673,3340,1230,-346,-529,-7827,628,492,279,-226
1674,3164,1333,-462,-556,-7852,675,492,279,-226
1675,3074,1192,-313,-657,-7845,842,492,279,-226
1676,3097,1318,-741,-686,-7750,1088,492,279,-226
1677,3377,1168,-701,-640,-7934,1112,492,279,-226
1678,3499,990,-716,-633,-8081,940,492,279,-226
1679,3594,902,-821,-673,-8251,724,454,271,-347
1680,3555,782,-1009,-674,-8415,511,454,271,-347
1681,3685,702,-913,-799,-8671,390,454,271,-347
1682,3723,772,-952,-1014,-8994,425,454,271,-347
1683,3703,990,-963,-1231,-9179,520,454,271,-347
1684,3660,1163,-987,-1347,-9301,752,454,271,-347
1685,3650,1201,-971,-1367,-9082,908,454,271,-347
1686,3597,1228,-1103,-1327,-8979,915,454,271,-347
1687,3422,1078,-942,-1395,-9049,858,454,271,-347
1688,3089,971,-980,-1270,-9415,695,454,271,-347
1689,2813,942,-1136,-1305,-9325,446,454,271,-347
1690,3032,1096,-1250,-1304,-9428,555,454,271,-347
1691,3018,1112,-1385,-1433,-9172,779,454,271,-347
1692,3563,1249,-1734,-1473,-9083,1045,454,271,-347
1693,3759,1245,-1730,-1289,-9133,1305,454,271,-347
1694,3943,1253,-1957,-946,-9228,1536,454,271,-347
1695,4021,1095,-2127,-731,-8840,1628,361,282,-474
1696,3957,804,-2082,-668,-8786,1745,361,282,-474
1697,3808,830,-1995,-677,-9032,1706,361,282,-474
1698,3702,788,-1825,-905,-9367,1497,361,282,-474
1699,3452,887,-1953,-1179,-9619,1312,361,282,-474
1700,3156,1017,-1915,-1362,-9849,1345,361,282,-474
1701,3009,1099,-1685,-1500,-9962,1387,361,282,-474
1702,2941,1422,-1817,-1304,-9956,1420,361,282,-474
1703,2972,1401,-2169,-926,-9751,1559,361,282,-474
1704,3102,1338,-2487,-546,-9637,1653,361,282,-474
1705,3249,1100,-2703,-157,-9547,1629,361,282,-474
1706,3355,882,-2921,38,-9330,1618,361,282,-474
1707,3395,628,-2894,117,-9211,1513,361,282,-474
1708,3390,594,-2812,-226,-9286,1405,361,282,-474
1709,3421,845,-2935,-334,-9343,1460,361,282,-474
1710,3371,827,-3022,-355,-9328,1476,222,269,-564
1711,3348,606,-3044,-609,-9293,1544,222,269,-564
1712,4033,521,-3425,-1197,-9442,1724,222,269,-564
1713,3573,161,-4075,-1498,-9257,1639,222,269,-564
1714,3310,430,-3801,-1991,-9191,1373,222,269,-564
1715,3250,619,-3618,-2092,-8983,1417,222,269,-564
1716,3137,668,-3501,-2275,-8931,1388,222,269,-564
1717,2856,472,-3294,-2440,-9008,1261,222,269,-564
1718,2710,764,-3262,-2398,-8837,1276,222,269,-564
1719,2607,939,-3294,-2118,-8581,1082,222,269,-564
1720,2736,897,-3270,-1878,-8363,999,222,269,-564
1721,2683,887,-3283,-1481,-8117,992,222,269,-564
1722,2544,792,-3333,-1319,-7864,920,222,269,-564
1723,2423,787,-3449,-1180,-7490,988,222,269,-564
1724,2342,774,-3621,-1053,-6977,1002,222,269,-564
1725,2236,754,-3507,-1025,-6504,890,222,269,-564
1726,2230,863,-3401,-1038,-6156,822,67,294,-603
1727,2166,964,-3442,-1046,-5915,758,67,294,-603
1728,2495,677,-3419,-1312,-5893,777,67,294,-603
1729,1805,1324,-3483,-1157,-5546,658,67,294,-603
1730,2192,890,-3674,-1043,-5299,564,67,294,-603
1731,2052,1033,-3593,-635,-4801,533,67,294,-603
1732,2010,1107,-3606,-342,-4502,480,67,294,-603
1733,1971,1043,-3696,-300,-4249,472,67,294,-603
1734,2029,1007,-3737,-297,-4109,424,67,294,-603
1735,2004,1020,-3854,-213,-3983,378,67,294,-603
1736,1942,1093,-4108,-40,-3776,332,67,294,-603
1737,1933,1059,-4336,58,-3544,265,67,294,-603
1738,1973,1066,-4540,58,-3364,210,67,294,-603
1739,2017,1007,-4718,-40,-3241,148,67,294,-603
1740,2019,1011,-4803,-148,-3178,104,67,294,-603
1741,2055,966,-4891,-249,-3158,71,67,294,-603
1742,2010,933,-4834,-364,-3150,21,-20,309,-606
1743,1974,900,-4680,-442,-3115,-6,-20,309,-606
1744,1920,863,-4537,-508,-3081,-23,-20,309,-606
1745,1746,910,-4421,-556,-2919,-24,-20,309,-606
1746,1645,883,-4291,-570,-2688,-27,-20,309,-606
1747,1603,796,-4143,-574,-2451,-7,-20,309,-606
1748,1492,757,-4046,-626,-2242,32,-20,309,-606
1749,1378,861,-4032,-642,-1940,73,-20,309,-606
1750,1416,946,-3893,-621,-1669,87,-20,309,-606
1751,1465,1019,-3919,-564,-1574,71,-20,309,-606
1752,1443,1028,-3961,-524,-1530,88,-20,309,-606
1753,1469,1038,-4123,-508,-1485,85,-20,309,-606
1754,1198,1221,-4166,-331,-1238,76,-20,309,-606
1755,1297,909,-4297,-339,-1134,88,-20,309,-606
1756,1260,980,-4436,-284,-1083,114,-20,309,-606
1757,1325,875,-4460,-291,-1153,139,-20,309,-606
1758,1267,877,-4619,-440,-1213,166,-52,311,-596
1759,1300,944,-4630,-532,-1225,169,-52,311,-596
1760,1382,939,-4558,-636,-1322,154,-52,311,-596
1761,1403,1018,-4572,-705,-1452,132,-52,311,-596
1762,1364,1045,-4521,-718,-1494,108,-52,311,-596
1763,1321,1044,-4402,-758,-1498,91,-52,311,-596
1764,1325,1019,-4253,-859,-1530,68,-52,311,-596
1765,1236,1059,-4166,-964,-1514,46,-52,311,-596
1766,1164,1105,-4056,-983,-1410,33,-52,311,-596
1767,1100,1119,-3937,-944,-1327,20,-52,311,-596
1768,1036,1129,-3806,-874,-1222,23,-52,311,-596
1769,1002,1099,-3746,-811,-1137,21,-52,311,-596
1770,941,1089,-3779,-769,-1073,34,-52,311,-596
1771,1104,1015,-3935,-794,-1081,70,-52,311,-596
1772,752,1329,-4067,-581,-968,34,-52,311,-596
1773,1004,1065,-4041,-538,-981,22,-82,329,-588
1774,991,1136,-4091,-533,-950,33,-82,329,-588
1775,1081,1118,-4041,-579,-1004,15,-82,329,-588
1776,1028,1096,-3985,-682,-1059,11,-82,329,-588
1777,925,1173,-3924,-671,-973,14,-82,329,-588
1778,934,1208,-3780,-621,-832,14,-82,329,-588
1779,955,1233,-3651,-538,-755,27,-82,329,-588
1780,955,1263,-3586,-395,-711,31,-82,329,-588
1781,885,1235,-3672,-252,-650,27,-82,329,-588
1782,932,1150,-3722,-185,-586,22,-82,329,-588
1783,880,1151,-3727,-177,-555,15,-82,329,-588
1784,898,1143,-3742,-151,-490,34,-82,329,-588
1785,883,1080,-3773,-111,-459,48,-82,329,-588
1786,884,1084,-3830,-90,-443,79,-82,329,-588
1787,897,1108,-3958,-105,-417,93,-82,329,-588
1788,915,1123,-4096,-126,-415,86,-82,329,-588
1789,909,1150,-4169,-126,-433,92,-82,329,-588
1790,952,1145,-4229,-137,-461,87,-82,329,-588
1791,947,1124,-4235,-161,-497,85,-82,329,-588
1792,944,1105,-4189,-215,-510,88,-82,329,-588
1793,929,1133,-4136,-248,-478,94,-82,329,-588
1794,963,1143,-4029,-248,-449,98,-82,329,-588
1795,940,1126,-4031,-186,-478,92,-82,329,-588
1796,909,1088,-4104,-154,-522,91,-82,329,-588
1797,936,1062,-4111,-189,-531,96,-82,329,-588
1798,902,1064,-4087,-269,-533,101,-82,329,-588
1799,893,1190,-4043,-332,-505,108,-82,329,-588
1800,909,1226,-4005,-328,-461,104,-82,329,-588
1801,897,1291,-3936,-276,-413,101,-82,329,-588
1802,902,1289,-3812,-230,-353,97,-82,329,-588
1803,882,1322,-3754,-214,-267,88,-82,329,-588
1804,869,1346,-3711,-150,-128,78,-82,329,-588
1805,827,1305,-3728,-50,12,69,-82,329,-588
1806,870,1282,-3731,83,103,55,-94,338,-589
1807,819,1195,-3804,196,166,56,-94,338,-589
1808,854,1173,-3810,241,222,64,-94,338,-589
1809,815,1151,-3896,252,267,76,-94,338,-589
1810,864,1207,-3974,265,299,76,-94,338,-589
1811,904,1249,-4087,294,295,68,-94,338,-589
1812,950,1219,-4171,331,250,46,-94,338,-589
1813,1012,1142,-4235,330,170,38,-94,338,-589
1814,1011,1045,-4300,272,120,32,-94,338,-589
1815,966,1063,-4335,191,103,38,-94,338,-589
1816,1000,1017,-4288,131,101,45,-94,338,-589
1817,970,1061,-4270,80,85,45,-94,338,-589
1818,975,1078,-4225,37,91,49,-94,338,-589
1819,1010,1101,-4251,24,67,44,-94,338,-589
1820,1006,1152,-4334,34,-7,42,-94,338,-589
1821,1001,1111,-4438,56,-134,36,-94,338,-589
1822,1038,1029,-4448,17,-242,23,-97,333,-584
1823,999,1035,-4340,-60,-310,20,-97,333,-584
1824,990,1051,-4346,-133,-312,25,-97,333,-584
1825,961,1051,-4215,-163,-295,25,-97,333,-584
1826,960,1102,-4165,-160,-264,30,-97,333,-584
1827,899,1104,-4124,-151,-213,38,-97,333,-584
1828,863,1141,-4106,-140,-155,46,-97,333,-584
1829,882,1181,-4140,-125,-88,36,-97,333,-584
1830,874,1187,-4168,-118,-50,34,-97,333,-584
1831,863,1156,-4155,-105,-7,29,-97,333,-584
1832,916,1201,-4101,-95,-21,7,-97,333,-584
1833,975,1105,-4037,-103,-152,-11,-97,333,-584
1834,907,1031,-4073,-82,-205,-13,-97,333,-584
1835,935,976,-4134,-87,-179,10,-97,333,-584
1836,863,964,-4175,-177,-119,41,-97,333,-584
1837,970,911,-4257,-530,-236,60,-97,333,-584
1838,1008,1336,-4177,-230,-82,43,-104,341,-591
1839,934,1227,-4201,-262,-40,0,-104,341,-591
1840,815,1268,-4168,-123,103,-3,-104,341,-591
1841,992,1179,-4093,-73,-2,-11,-104,341,-591
1842,907,1068,-4076,-197,-53,-8,-104,341,-591
1843,788,1165,-4121,-175,45,2,-104,341,-591
1844,805,1135,-4057,-121,139,-1,-104,341,-591
1845,906,1130,-4084,-48,93,-3,-104,341,-591
1846,892,1084,-4018,44,56,-2,-104,341,-591
1847,876,1058,-4123,75,56,4,-104,341,-591
1848,884,1072,-4111,31,61,7,-104,341,-591
1849,882,1083,-4100,-16,85,6,-104,341,-591
1850,891,1112,-4072,-30,85,19,-104,341,-591
1851,880,1120,-4046,0,85,26,-104,341,-591
1852,883,1122,-4081,14,95,31,-104,341,-591
1853,873,1129,-4153,9,112,43,-104,341,-591
1854,921,1112,-4263,-41,88,34,-104,341,-591
1855,953,1118,-4414,-91,13,26,-94,330,-589
1856,962,1115,-4361,-128,-69,17,-94,330,-589
1857,1008,1026,-4364,-168,-183,11,-94,330,-589
1858,970,1002,-4217,-225,-289,5,-94,330,-589
1859,962,1035,-4109,-274,-317,19,-94,330,-589
1860,976,1068,-4023,-316,-296,32,-94,330,-589
1861,937,1127,-3978,-319,-233,35,-94,330,-589
1862,924,1210,-3934,-281,-172,33,-94,330,-589
1863,891,1261,-3956,-221,-103,29,-94,330,-589
1864,898,1249,-3981,-140,-51,14,-94,330,-589
1865,851,1241,-3988,-91,-22,-3,-94,330,-589
1866,865,1216,-4020,-58,14,-18,-94,330,-589
1867,829,1206,-4042,-45,40,-20,-94,330,-589
1868,846,1180,-4099,-10,51,-32,-94,330,-589
1869,846,1159,-4111,10,23,-31,-94,330,-589
1870,857,1086,-4066,13,-14,-23,-94,330,-589
1871,868,1025,-4010,-7,-35,-10,-99,335,-587
1872,870,1083,-3996,-64,-22,3,-99,335,-587
1873,853,1120,-4000,-105,19,8,-99,335,-587
1874,877,1192,-3962,-103,48,10,-99,335,-587
1875,878,1229,-3998,-48,85,3,-99,335,-587
1876,886,1251,-3969,11,108,-9,-99,335,-587
1877,873,1202,-3985,56,136,-13,-99,335,-587
1878,841,1135,-4029,66,170,-10,-99,335,-587
1879,852,1144,-4101,74,184,-12,-99,335,-587
1880,885,1115,-4184,80,176,-10,-99,335,-587
1881,921,1118,-4245,72,137,-14,-99,335,-587
1882,959,1091,-4246,51,80,-13,-99,335,-587
1883,948,1093,-4271,31,26,-26,-99,335,-587
1884,953,1108,-4270,24,-15,-33,-99,335,-587
1885,958,1071,-4275,-26,-53,-36,-99,335,-587
1886,943,1046,-4212,-88,-85,-37,-99,335,-587
1887,931,1063,-4189,-124,-74,-30,-102,341,-593
1888,870,1124,-4099,-103,-31,-25,-102,341,-593
1889,881,1159,-4068,-42,6,-24,-102,341,-593
1890,880,1158,-3995,-18,40,-22,-102,341,-593
1891,875,1155,-4023,-24,63,-38,-102,341,-593
1892,900,1135,-4023,-14,81,-41,-102,341,-593
1893,929,1127,-3943,31,8,-39,-102,341,-593
1894,886,1090,-3936,82,-48,-32,-102,341,-593
1895,851,1055,-4004,88,-21,-17,-102,341,-593
1896,872,1056,-4010,49,26,-7,-102,341,-593
1897,879,1113,-4008,8,66,12,-102,341,-593
1898,879,1102,-4032,18,104,15,-102,341,-593
1899,879,1145,-4050,53,118,17,-102,341,-593
1900,895,1163,-4091,78,139,14,-102,341,-593
1901,868,1131,-4116,79,165,9,-102,341,-593
1902,872,1125,-4133,73,199,0,-102,341,-593
1903,887,1137,-4125,81,224,-1,-102,341,-593
1904,916,1142,-4189,112,204,15,-97,329,-591
1905,962,1053,-4240,94,93,14,-97,329,-591
1906,994,975,-4268,5,-49,13,-97,329,-591
1907,954,980,-4256,-87,-118,32,-97,329,-591
1908,950,997,-4184,-167,-115,40,-97,329,-591
1909,959,1037,-4117,-219,-105,47,-97,329,-591
1910,954,1102,-4127,-253,-72,48,-97,329,-591
1911,932,1205,-4038,-226,-50,38,-97,329,-591
1912,918,1244,-4090,-162,-4,30,-97,329,-591
1913,906,1244,-4031,-114,24,5,-97,329,-591
1914,892,1183,-4072,-68,58,-1,-97,329,-591
1915,859,1133,-4077,-25,85,-6,-97,329,-591
1916,850,1117,-4131,28,93,-5,-97,329,-591
1917,918,1080,-4170,60,47,-5,-97,329,-591
1918,915,1017,-4139,37,-9,-4,-97,329,-591
1919,913,990,-4169,-25,-55,0,-97,329,-591
1920,930,1051,-4183,-116,-61,11,-96,330,-586
1921,922,1099,-4072,-165,-35,15,-96,330,-586
1922,904,1162,-4079,-152,-17,5,-96,330,-586
1923,919,1183,-4021,-116,2,5,-96,330,-586
1924,904,1203,-4008,-62,11,-4,-96,330,-586
1925,874,1160,-4032,-35,36,-10,-96,330,-586
1926,869,1169,-3995,-18,80,-3,-96,330,-586
1927,858,1149,-3989,1,124,1,-96,330,-586
1928,844,1144,-4049,43,163,0,-96,330,-586
1929,895,1136,-4118,85,152,-7,-96,330,-586
1930,931,1084,-4082,96,79,-14,-96,330,-586
1931,908,1035,-4164,59,10,-7,-96,330,-586
1932,908,1057,-4177,0,-18,5,-96,330,-586
1933,904,1039,-4089,-60,-26,25,-96,330,-586
1934,905,1071,-4079,-74,-21,28,-96,330,-586
1935,902,1124,-4062,-65,3,33,-96,330,-586
1936,903,1156,-4042,-36,18,29,-96,330,-586
1937,897,1146,-4072,-9,33,23,-101,337,-594
1938,890,1124,-4084,-8,61,10,-101,337,-594
1939,877,1139,-4061,4,82,6,-101,337,-594
1940,871,1112,-4011,15,114,12,-101,337,-594
1941,854,1099,-4073,49,145,13,-101,337,-594
1942,846,1127,-4069,72,172,19,-101,337,-594
1943,887,1081,-4097,104,164,26,-101,337,-594
1944,927,1054,-4107,106,109,25,-101,337,-594
1945,930,1022,-4122,71,69,28,-101,337,-594
1946,938,1019,-4099,16,49,39,-101,337,-594
1947,933,1094,-4094,-28,58,35,-101,337,-594
1948,959,1144,-4071,-30,72,36,-101,337,-594
1949,960,1153,-4074,-14,64,29,-101,337,-594
1950,924,1152,-4107,20,69,15,-101,337,-594
1951,912,1130,-4120,25,71,13,-101,337,-594
1952,908,1079,-4105,25,91,7,-101,337,-594
1953,883,1078,-4077,37,110,16,-91,329,-591
1954,878,1104,-4093,51,140,18,-91,329,-591
1955,901,1107,-4083,81,147,18,-91,329,-591
1956,917,1068,-4085,114,129,27,-91,329,-591
1957,946,1050,-4100,122,96,28,-91,329,-591
1958,976,1021,-4145,91,45,26,-91,329,-591
1959,942,1046,-4146,24,20,27,-91,329,-591
1960,953,1099,-4169,-21,38,28,-91,329,-591
1961,959,1097,-4149,-22,45,30,-91,329,-591
1962,996,1131,-4155,4,53,33,-91,329,-591
1963,939,1113,-4156,26,49,21,-91,329,-591
1964,945,1081,-4155,29,56,18,-91,329,-591
1965,923,1072,-4164,11,84,16,-91,329,-591
1966,943,1074,-4101,18,110,16,-91,329,-591
1967,955,1106,-4118,40,125,13,-91,329,-591
1968,944,1107,-4163,68,102,3,-91,329,-591
1969,961,1090,-4165,86,82,-10,-91,329,-591
1970,964,1050,-4156,95,72,-18,-93,325,-588
1971,943,1014,-4208,66,83,-14,-93,325,-588
1972,946,1052,-4142,43,108,-13,-93,325,-588
1973,953,1056,-4160,41,134,-5,-93,325,-588
1974,945,1066,-4122,56,145,2,-93,325,-588
1975,943,1050,-4167,73,155,9,-93,325,-588
1976,971,1026,-4178,91,177,7,-93,325,-588
1977,945,1031,-4150,103,200,8,-93,325,-588
1978,991,1061,-4167,110,184,4,-93,325,-588
1979,1012,1065,-4176,105,129,1,-93,325,-588
1980,1009,999,-4213,70,68,-5,-93,325,-588
1981,959,994,-4186,35,53,1,-93,325,-588
1982,971,984,-4168,-15,40,7,-93,325,-588
1983,979,1009,-4153,-46,50,20,-93,325,-588
1984,966,1057,-4080,-52,46,23,-93,325,-588
1985,969,1069,-4094,-48,54,25,-93,325,-588
1986,933,1096,-4115,-28,80,27,-94,333,-597
1987,916,1155,-4128,-1,95,22,-94,333,-597
1988,954,1103,-4158,31,114,17,-94,333,-597
1989,945,1083,-4136,58,89,18,-94,333,-597
1990,977,1022,-4121,48,-9,-2,-94,333,-597
1991,965,1008,-4144,20,-71,-7,-94,333,-597
1992,925,995,-4144,-15,-72,-1,-94,333,-597
1993,931,1001,-4127,-59,-51,6,-94,333,-597
1994,936,1029,-4117,-82,-29,10,-94,333,-597
1995,928,1041,-4099,-85,-21,15,-94,333,-597
1996,917,1051,-4091,-64,-3,16,-94,333,-597
1997,928,1080,-4137,-46,15,16,-94,333,-597
1998,916,1076,-4064,-30,39,7,-94,333,-597
1999,926,1076,-4112,-31,54,7,-94,333,-597
2000,918,1067,-4120,-15,75,6,-94,333,-597
2001,943,1080,-4141,18,53,5,-94,333,-597
2002,975,1033,-4128,17,-3,-3,-94,333,-597
2003,986,1005,-4133,-14,-76,-6,-84,323,-595
2004,973,991,-4061,-59,-84,1,-84,323,-595
2005,994,1052,-3996,-91,-59,6,-84,323,-595
2006,984,1139,-4036,-85,-29,9,-84,323,-595
2007,959,1155,-4015,-53,-5,0,-84,323,-595
2008,969,1158,-3953,5,21,-5,-84,323,-595
2009,945,1161,-4020,64,42,-20,-84,323,-595
2010,926,1135,-4069,116,65,-30,-84,323,-595
2011,937,1108,-4071,146,99,-29,-84,323,-595
2012,917,1066,-4057,148,123,-33,-84,323,-595
2013,939,1052,-4078,131,147,-33,-84,323,-595
2014,909,1033,-4133,134,157,-26,-84,323,-595
2015,934,1009,-4124,112,167,-18,-84,323,-595
2016,933,992,-4128,113,164,-9,-84,323,-595
2017,920,980,-4138,98,139,0,-84,323,-595
2018,950,971,-4173,99,109,8,-84,323,-595
2019,961,961,-4128,95,70,16,-91,318,-593
2020,973,945,-4145,57,33,18,-91,318,-593
2021,976,1012,-4153,17,24,25,-91,318,-593
2022,1002,1038,-4212,-24,35,15,-91,318,-593
2023,1011,1056,-4206,-26,29,13,-91,318,-593
2024,1004,1089,-4191,-23,15,0,-91,318,-593
2025,1018,1071,-4159,-16,-10,-16,-91,318,-593
2026,996,1054,-4192,-17,-12,-11,-91,318,-593
2027,958,1006,-4214,-25,-18,-20,-91,318,-593
2028,950,993,-4189,-36,-26,-15,-91,318,-593
2029,968,999,-4195,-58,-29,-5,-91,318,-593
2030,941,990,-4148,-87,-25,-6,-91,318,-593
2031,930,1020,-4093,-100,-16,4,-91,318,-593
2032,961,1022,-4088,-103,-14,3,-91,318,-593
2033,943,1003,-4065,-92,-4,11,-91,318,-593
2034,943,1029,-4066,-92,10,12,-91,318,-593
2035,948,1045,-4087,-72,32,12,-91,318,-593
2036,925,1018,-4079,-60,51,19,-91,329,-596
2037,958,1029,-4112,-33,69,32,-91,329,-596
2038,936,1039,-4186,-16,67,35,-91,329,-596
2039,1002,971,-4201,-26,26,26,-91,329,-596
2040,992,940,-4186,-73,-53,10,-91,329,-596
2041,974,968,-4172,-123,-68,10,-91,329,-596
2042,996,1035,-4085,-158,-42,7,-91,329,-596
2043,999,1068,-4044,-157,-9,-1,-91,329,-596
2044,1003,1082,-4094,-143,-2,-4,-91,329,-596
2045,1021,1082,-4154,-114,-18,-12,-91,329,-596
2046,958,1075,-4083,-78,-15,-19,-91,329,-596
2047,965,1062,-4120,-76,-4,-22,-91,329,-596
2048,942,1026,-4084,-66,13,-24,-91,329,-596
2049,920,1029,-4059,-45,9,-24,-91,329,-596
2050,939,1008,-4105,-20,5,-27,-91,329,-596
2051,941,951,-4100,-14,2,-15,-91,329,-596
2052,933,970,-4135,-35,11,-3,-86,319,-600
2053,944,958,-4108,-57,6,-6,-86,319,-600
2054,949,1016,-4113,-76,16,4,-86,319,-600
2055,963,1010,-4130,-70,19,3,-86,319,-600
2056,974,1001,-4124,-54,12,4,-86,319,-600
2057,946,1005,-4129,-48,11,9,-86,319,-600
2058,962,1036,-4166,-41,19,8,-86,319,-600
2059,956,1003,-4153,-40,18,18,-86,319,-600
2060,981,988,-4164,-53,20,9,-86,319,-600
2061,1008,930,-4117,-80,-2,14,-86,319,-600
2062,984,1006,-4117,-74,-16,14,-86,319,-600
2063,982,1048,-4145,-58,-17,26,-86,319,-600
2064,995,1049,-4142,-61,-20,21,-86,319,-600
2065,983,1091,-4160,-64,-25,10,-86,319,-600
2066,983,1056,-4135,-60,-33,5,-86,319,-600
2067,1019,1084,-4101,-52,-22,-5,-86,319,-600
2068,969,1076,-4132,-49,-15,-4,-86,319,-600
2069,957,1027,-4065,-46,-1,-6,-89,319,-593
2070,924,1000,-4109,-40,17,-11,-89,319,-593
2071,923,1014,-4092,-52,16,-6,-89,319,-593
2072,949,981,-4078,-56,20,-11,-89,319,-593
2073,954,997,-4073,-74,17,-20,-89,319,-593
2074,943,997,-4091,-103,25,-10,-89,319,-593
2075,989,1048,-4082,-120,39,-17,-89,319,-593
2076,983,1062,-4050,-116,51,-16,-89,319,-593
2077,970,1044,-4095,-89,51,-13,-89,319,-593
2078,948,1034,-4057,-47,44,-17,-89,319,-593
2079,968,1028,-4110,-29,51,-4,-89,319,-593
2080,934,1012,-4152,-28,48,-3,-89,319,-593
2081,970,1015,-4177,-40,38,2,-89,319,-593
2082,984,997,-4199,-35,16,-8,-89,319,-593
2083,988,989,-4266,-35,-13,-1,-89,319,-593
2084,1014,994,-4303,-46,-51,-2,-89,319,-593
2085,996,978,-4257,-84,-84,0,-95,327,-598
2086,967,1016,-4239,-125,-114,3,-95,327,-598
2087,1006,1036,-4158,-137,-118,0,-95,327,-598
2088,1002,1060,-4126,-144,-137,3,-95,327,-598
2089,948,1026,-4107,-130,-138,-2,-95,327,-598
2090,919,1031,-4037,-126,-117,1,-95,327,-598
2091,921,1013,-4059,-107,-95,-1,-95,327,-598
2092,908,999,-4085,-94,-65,6,-95,327,-598
2093,910,969,-4082,-81,-46,13,-95,327,-598
2094,922,1028,-4072,-77,-33,14,-95,327,-598
2095,918,1009,-4084,-94,-41,15,-95,327,-598
2096,938,1029,-4047,-88,-30,7,-95,327,-598
2097,961,1015,-4041,-78,-20,8,-95,327,-598
2098,936,1022,-4034,-69,6,11,-95,327,-598
2099,977,1005,-4084,-72,24,11,-95,327,-598
2100,973,1040,-4079,-78,9,7,-95,327,-598
2101,967,1007,-4085,-77,3,12,-95,327,-598
2102,963,1000,-4112,-75,4,16,-87,320,-599
2103,969,999,-4127,-66,9,13,-87,320,-599
2104,960,1023,-4077,-74,12,12,-87,320,-599
2105,969,1022,-4093,-91,20,10,-87,320,-599
2106,984,1053,-4078,-72,20,0,-87,320,-599
2107,979,1021,-4074,-49,18,6,-87,320,-599
2108,958,1023,-4111,-42,4,7,-87,320,-599
2109,984,1035,-4141,-44,12,3,-87,320,-599
2110,983,1047,-4178,-72,-5,2,-87,320,-599
2111,981,1071,-4195,-76,-6,-3,-87,320,-599
2112,979,1069,-4183,-63,-31,3,-87,320,-599
2113,970,1054,-4170,-47,-39,8,-87,320,-599
2114,958,1033,-4165,-35,-52,9,-87,320,-599
2115,957,1021,-4165,-44,-60,9,-87,320,-599
2116,947,993,-4191,-55,-63,16,-87,320,-599
2117,953,1012,-4215,-61,-56,19,-87,320,-599
2118,957,1005,-4167,-61,-65,22,-91,317,-598
2119,959,1007,-4219,-75,-92,20,-91,317,-598
2120,941,1044,-4146,-89,-107,19,-91,317,-598
2121,952,1051,-4091,-107,-106,6,-91,317,-598
2122,918,1059,-4062,-108,-73,6,-91,317,-598
2123,950,1041,-4004,-87,-35,3,-91,317,-598
2124,944,1019,-3998,-66,-8,0,-91,317,-598
2125,955,1019,-4066,-47,12,6,-91,317,-598
2126,924,993,-4120,-34,13,10,-91,317,-598
2127,948,1017,-4147,-47,18,12,-91,317,-598
2128,978,1020,-4192,-74,13,11,-91,317,-598
2129,1003,1050,-4131,-80,8,7,-91,317,-598
2130,988,1047,-4160,-74,9,-4,-91,317,-598
2131,984,1060,-4079,-67,1,-5,-91,317,-598
2132,963,1003,-4086,-65,-7,-8,-91,317,-598
2133,933,977,-4128,-82,-39,-3,-91,317,-598
2134,928,989,-4142,-95,-34,6,-91,317,-598
2135,965,991,-4113,-102,-31,16,-93,326,-602
2136,970,1017,-4093,-111,-20,17,-93,326,-602
2137,955,1041,-4117,-111,-13,9,-93,326,-602
2138,979,1041,-4072,-108,-8,4,-93,326,-602
2139,966,994,-4081,-95,-1,1,-93,326,-602
2140,918,1001,-4068,-80,15,-2,-93,326,-602
2141,941,994,-4117,-74,22,6,-93,326,-602
2142,951,1016,-4065,-60,25,22,-93,326,-602
2143,937,1021,-4131,-55,26,18,-93,326,-602
2144,935,1006,-4205,-55,15,17,-93,326,-602
2145,985,1021,-4212,-74,-9,13,-93,326,-602
2146,989,1035,-4169,-83,-24,13,-93,326,-602
2147,972,1026,-4170,-92,-31,15,-93,326,-602
2148,967,1043,-4110,-84,-19,10,-93,326,-602
2149,943,1034,-4128,-81,-4,15,-93,326,-602
2150,976,1052,-4097,-76,12,13,-93,326,-602
2151,929,1003,-4106,-73,21,19,-88,318,-599
2152,945,1028,-4079,-53,30,17,-88,318,-599
2153,916,1028,-4081,-57,12,9,-88,318,-599
2154,945,1031,-4063,-53,23,13,-88,318,-599
2155,951,1023,-4159,-54,12,14,-88,318,-599
2156,955,1016,-4139,-64,23,15,-88,318,-599
2157,953,1019,-4150,-72,13,13,-88,318,-599
2158,973,1031,-4104,-88,17,14,-88,318,-599
2159,960,1037,-4120,-89,9,12,-88,318,-599
2160,965,1045,-4164,-83,6,16,-88,318,-599
2161,971,1059,-4142,-84,6,6,-88,318,-599
2162,972,1043,-4167,-80,-5,1,-88,318,-599
2163,988,1042,-4157,-70,-9,1,-88,318,-599
2164,943,1040,-4147,-59,-9,-6,-88,318,-599
2165,954,1030,-4115,-55,2,1,-88,318,-599
2166,971,1011,-4132,-62,2,0,-88,318,-599
2167,959,1033,-4160,-67,3,6,-88,318,-599
2168,986,1019,-4160,-83,11,0,-91,319,-593
2169,977,1041,-4162,-78,-4,-2,-91,319,-593
2170,965,1019,-4155,-88,-23,-8,-91,319,-593
2171,962,1009,-4109,-115,-36,-4,-91,319,-593
2172,967,983,-4115,-151,-30,2,-91,319,-593
2173,941,1012,-4080,-159,-24,5,-91,319,-593
2174,936,1021,-4049,-149,3,8,-91,319,-593
2175,947,1081,-4077,-139,1,2,-91,319,-593
2176,971,1064,-4033,-120,11,-1,-91,319,-593
2177,969,1084,-4041,-92,25,-5,-91,319,-593
2178,944,1087,-4072,-76,27,-7,-91,319,-593
2179,965,1043,-4101,-71,43,-6,-91,319,-593
2180,952,1038,-4113,-73,39,-17,-91,319,-593
2181,960,1019,-4125,-81,25,-16,-91,319,-593
2182,958,963,-4149,-81,13,-8,-91,319,-593
2183,955,1010,-4194,-77,6,3,-91,319,-593
2184,992,989,-4171,-86,1,5,-91,319,-593
2185,974,1007,-4163,-109,-11,6,-91,319,-593
2186,972,1032,-4176,-115,-10,8,-91,319,-593
2187,952,1065,-4160,-114,1,9,-91,319,-593
2188,965,1059,-4157,-85,8,2,-91,319,-593
2189,949,1033,-4142,-65,-3,4,-91,319,-593
2190,949,1018,-4132,-55,1,-3,-91,319,-593
2191,949,1016,-4149,-76,7,-1,-91,319,-593
2192,899,1011,-4139,-86,32,2,-91,319,-593
2193,936,997,-4123,-91,37,1,-91,319,-593
2194,981,1009,-4110,-87,45,11,-91,319,-593
2195,956,1013,-4104,-80,42,17,-91,319,-593
2196,955,1007,-4116,-86,49,18,-91,319,-593
2197,950,1047,-4116,-86,39,15,-91,319,-593
2198,933,1016,-4084,-111,49,12,-91,319,-593
2199,943,981,-4085,-108,57,9,-91,319,-593
2200,940,1010,-4118,-100,60,5,-91,319,-593
2201,968,981,-4089,-100,75,15,-85,320,-601
2202,960,1018,-4107,-89,77,15,-85,320,-601
2203,973,1026,-4200,-85,67,22,-85,320,-601
2204,978,1024,-4173,-78,30,23,-85,320,-601
2205,985,1033,-4187,-72,-7,10,-85,320,-601
2206,990,1016,-4173,-78,-32,5,-85,320,-601
2207,996,1053,-4149,-96,-19,10,-85,320,-601
2208,978,1037,-4123,-118,-2,11,-85,320,-601
2209,943,1042,-4090,-117,11,7,-85,320,-601
2210,933,1064,-4087,-91,36,7,-85,320,-601
2211,924,1032,-4096,-65,41,13,-85,320,-601
2212,956,1014,-4092,-35,48,16,-85,320,-601
2213,944,997,-4096,-34,25,20,-85,320,-601
2214,974,1056,-4064,-50,16,17,-85,320,-601
2215,940,1047,-4059,-56,29,10,-85,320,-601
2216,985,1057,-4090,-63,43,15,-85,320,-601
2217,976,1069,-4072,-54,46,13,-85,320,-601
2218,974,1065,-4092,-49,43,8,-90,319,-593
2219,968,1053,-4128,-54,30,0,-90,319,-593
2220,982,1040,-4161,-45,41,5,-90,319,-593
2221,979,1052,-4094,-47,64,1,-90,319,-593
2222,984,1062,-4136,-41,83,11,-90,319,-593
2223,968,1052,-4144,-43,99,8,-90,319,-593
2224,941,1093,-4104,-32,103,10,-90,319,-593
2225,976,1079,-4120,-8,121,14,-90,319,-593
2226,962,1058,-4086,2,111,-2,-90,319,-593
2227,972,1042,-4107,-17,71,4,-90,319,-593
2228,981,1013,-4119,-9,54,1,-90,319,-593
2229,988,973,-4116,-21,38,0,-90,319,-593
2230,975,987,-4191,-30,29,7,-90,319,-593
2231,984,1010,-4192,-67,16,7,-90,319,-593
2232,994,1006,-4227,-94,18,8,-90,319,-593
2233,957,970,-4222,-101,2,4,-90,319,-593
2234,973,1028,-4182,-98,-6,0,-91,328,-599
2235,979,1007,-4125,-91,-24,3,-91,328,-599
2236,952,1002,-4133,-89,-17,-1,-91,328,-599
2237,962,994,-4082,-83,-22,11,-91,328,-599
2238,964,1025,-4100,-66,-21,6,-91,328,-599
2239,975,1006,-4188,-51,-28,11,-91,328,-599
2240,972,1042,-4182,-55,-21,16,-91,328,-599
2241,970,1052,-4111,-91,-26,-1,-91,328,-599
2242,999,1059,-4077,-127,-38,-32,-91,328,-599
2243,999,1069,-4114,-125,-33,-36,-91,328,-599
2244,991,1068,-4112,-83,-27,-48,-91,328,-599
2245,938,1046,-4112,-49,-41,-44,-91,328,-599
2246,951,1048,-4137,-31,-43,-52,-91,328,-599
2247,948,987,-4158,-45,-56,-37,-91,328,-599
2248,967,1018,-4163,-58,-60,-25,-91,328,-599
2249,935,998,-4136,-69,-49,-16,-91,328,-599
2250,954,1023,-4088,-74,-47,-15,-91,328,-599
2251,942,1021,-4047,-61,-38,-11,-85,320,-598
2252,947,1045,-4043,-51,-33,-8,-85,320,-598
2253,928,1037,-4051,-48,-10,0,-85,320,-598
2254,941,1034,-4022,-51,-2,0,-85,320,-598
2255,913,1051,-4044,-43,30,-3,-85,320,-598
2256,935,1028,-4072,-26,50,-5,-85,320,-598
2257,979,1003,-4052,-12,50,-10,-85,320,-598
2258,949,972,-4090,0,16,4,-85,320,-598
2259,944,945,-4118,8,10,13,-85,320,-598
2260,982,963,-4158,-14,4,22,-85,320,-598
2261,979,1027,-4179,-58,-2,26,-85,320,-598
2262,993,1062,-4130,-85,-21,29,-85,320,-598
2263,986,1055,-4137,-78,-40,24,-85,320,-598
2264,994,1096,-4188,-65,-63,24,-85,320,-598
2265,1001,1051,-4207,-50,-99,25,-85,320,-598
2266,966,994,-4186,-59,-116,31,-85,320,-598
2267,993,979,-4180,-82,-106,61,-87,320,-597
2268,947,973,-4141,-124,-87,83,-87,320,-597
2269,956,965,-4143,-151,-73,95,-87,320,-597
2270,970,1068,-4114,-160,-50,93,-87,320,-597
2271,979,1055,-4120,-151,-43,91,-87,320,-597
2272,946,1079,-4068,-136,-27,88,-87,320,-597
2273,948,1060,-4090,-120,-4,93,-87,320,-597
2274,951,1022,-4019,-125,-9,81,-87,320,-597
2275,953,1021,-4027,-138,-6,73,-87,320,-597
2276,945,1031,-4044,-137,13,78,-87,320,-597
2277,938,1048,-3997,-142,50,86,-87,320,-597
2278,957,1039,-4031,-123,74,84,-87,320,-597
2279,962,1062,-4094,-115,74,77,-87,320,-597
2280,998,1080,-4107,-88,79,77,-87,320,-597
2281,970,1034,-4153,-82,62,74,-87,320,-597
2282,966,1040,-4130,-97,63,84,-87,320,-597
2283,958,1037,-4126,-119,67,65,-87,320,-597
2284,963,1065,-4061,-105,87,52,-91,329,-596
2285,959,1079,-4056,-59,109,40,-91,329,-596
2286,959,1063,-4033,3,137,38,-91,329,-596
2287,971,1088,-4084,49,158,35,-91,329,-596
2288,972,1054,-4144,70,165,28,-91,329,-596
2289,968,1051,-4133,73,163,24,-91,329,-596
2290,1031,1045,-4221,78,112,14,-91,329,-596
2291,1046,942,-4242,63,0,10,-91,329,-596
2292,1028,894,-4270,5,-68,19,-91,329,-596
2293,984,914,-4279,-77,-104,26,-91,329,-596
2294,977,950,-4209,-156,-96,41,-91,329,-596
2295,996,990,-4116,-201,-103,44,-91,329,-596
2296,971,1044,-4116,-211,-101,45,-91,329,-596
2297,970,1052,-4034,-192,-94,37,-91,329,-596
2298,937,1046,-4015,-181,-83,34,-91,329,-596
2299,932,1081,-4018,-151,-36,27,-91,329,-596
2300,941,1092,-3975,-107,22,20,-84,320,-600
2301,945,1057,-3975,-58,71,18,-84,320,-600
2302,944,1059,-3983,-12,102,10,-84,320,-600
2303,945,1042,-4073,1,128,8,-84,320,-600
2304,962,1043,-4080,-2,137,3,-84,320,-600
2305,979,1033,-4095,-2,145,2,-84,320,-600
2306,1008,1046,-4176,12,139,-4,-84,320,-600
2307,1015,1025,-4203,15,119,-1,-84,320,-600
2308,990,974,-4215,4,106,1,-84,320,-600
2309,980,963,-4190,-27,95,7,-84,320,-600
2310,975,970,-4182,-44,102,1,-84,320,-600
2311,965,1022,-4108,-55,118,1,-84,320,-600
2312,996,1038,-4171,-47,129,-10,-84,320,-600
2313,992,1014,-4120,-20,137,-15,-84,320,-600
2314,976,1043,-4167,-5,142,-15,-84,320,-600
2315,972,1048,-4147,17,167,-22,-84,320,-600
2316,997,1001,-4148,32,168,-24,-84,320,-600
2317,1027,920,-4084,6,131,-23,-84,320,-600
2318,1022,913,-4125,-32,95,-12,-84,320,-600
2319,961,973,-4140,-44,64,-3,-84,320,-600
2320,995,984,-4132,-58,56,21,-84,320,-600
2321,1000,991,-4132,-70,31,23,-84,320,-600
2322,1029,1011,-4111,-90,35,23,-84,320,-600
2323,1006,1002,-4148,-116,15,24,-84,320,-600
2324,988,1016,-4132,-118,9,21,-84,320,-600
2325,996,1005,-4174,-123,10,15,-84,320,-600
2326,982,1025,-4163,-125,13,24,-84,320,-600
2327,991,1016,-4123,-133,19,21,-84,320,-600
2328,997,1017,-4132,-131,36,19,-84,320,-600
2329,985,1047,-4099,-125,51,19,-84,320,-600
2330,1003,1049,-4092,-115,49,8,-84,320,-600
2331,1006,1035,-4102,-101,55,4,-84,320,-600
2332,990,1048,-4113,-83,50,7,-84,320,-600
2333,993,1028,-4118,-79,50,6,-88,328,-599
2334,1005,1013,-4133,-76,58,9,-88,328,-599
2335,1014,1023,-4125,-76,46,8,-88,328,-599
2336,1028,1030,-4119,-81,24,2,-88,328,-599
2337,1003,1025,-4125,-67,-15,-2,-88,328,-599
2338,990,1019,-4096,-74,-8,-3,-88,328,-599
2339,991,1039,-4151,-89,-2,1,-88,328,-599
2340,999,1009,-4126,-88,7,0,-88,328,-599
2341,998,1023,-4118,-87,8,-4,-88,328,-599
2342,1013,1043,-4150,-68,1,0,-88,328,-599
2343,996,1019,-4145,-61,-13,-3,-88,328,-599
2344,1001,1005,-4113,-59,-12,2,-88,328,-599
2345,981,978,-4147,-77,-17,5,-88,328,-599
2346,1001,976,-4140,-94,-14,13,-88,328,-599
2347,977,983,-4061,-107,-3,19,-88,328,-599
2348,971,1010,-4113,-124,7,23,-88,328,-599
2349,984,1028,-4059,-121,16,25,-88,328,-599
2350,979,1015,-4069,-107,30,16,-88,328,-599
2351,987,1047,-4107,-84,29,30,-88,328,-599
2352,986,1007,-4110,-69,17,28,-88,328,-599
2353,955,996,-4086,-57,2,32,-88,328,-599
2354,982,991,-4126,-46,4,48,-88,328,-599
2355,1001,1016,-4188,-54,1,57,-88,328,-599
2356,995,983,-4150,-60,3,67,-88,328,-599
2357,1027,1001,-4144,-70,-16,81,-88,328,-599
2358,987,998,-4172,-82,-30,90,-88,328,-599
2359,1010,1019,-4152,-105,-51,91,-88,328,-599
2360,1032,1053,-4169,-99,-63,90,-88,328,-599
2361,996,1025,-4144,-90,-75,89,-88,328,-599
2362,1024,1016,-4119,-78,-76,94,-88,328,-599
2363,1035,1028,-4147,-89,-45,109,-88,328,-599
2364,940,1031,-4130,-114,-25,106,-88,328,-599
2365,950,1024,-4117,-91,26,88,-88,328,-599
2366,972,1027,-4065,-61,50,83,-82,319,-592
2367,1020,961,-4031,-33,36,106,-82,319,-592
2368,975,951,-4065,-32,19,121,-82,319,-592
2369,987,927,-4069,-66,39,148,-82,319,-592
2370,950,968,-4089,-118,58,172,-82,319,-592
2371,992,1007,-4070,-161,75,168,-82,319,-592
2372,1031,1082,-4061,-172,85,133,-82,319,-592
2373,1040,1124,-4002,-156,91,95,-82,319,-592
2374,1025,1130,-4054,-116,105,73,-82,319,-592
2375,1054,1088,-4047,-83,112,55,-82,319,-592
2376,1024,1101,-4115,-59,122,23,-82,319,-592
2377,1023,1066,-4117,-58,109,-12,-82,319,-592
2378,1055,1103,-4114,-43,90,-40,-82,319,-592
2379,1055,1043,-4155,-32,85,-49,-82,319,-592
2380,1054,1015,-4138,-5,86,-49,-82,319,-592
2381,1024,1027,-4189,-5,73,-43,-82,319,-592
2382,1018,976,-4145,-29,48,-38,-88,329,-598
2383,1030,988,-4131,-48,32,-18,-88,329,-598
2384,1033,1005,-4138,-62,27,-7,-88,329,-598
2385,1010,983,-4106,-69,27,-3,-88,329,-598
2386,981,1037,-4089,-75,19,-3,-88,329,-598
2387,983,1041,-4125,-73,25,-13,-88,329,-598
2388,999,1026,-4105,-39,26,-13,-88,329,-598
2389,1010,973,-4168,-23,15,-16,-88,329,-598
2390,1014,970,-4166,-46,-10,-20,-88,329,-598
2391,1024,981,-4142,-83,-15,-9,-88,329,-598
2392,992,1002,-4122,-121,-14,2,-88,329,-598
2393,976,1015,-4087,-136,-11,1,-88,329,-598
2394,1000,1007,-4057,-119,7,6,-88,329,-598
2395,996,1056,-4084,-98,22,13,-88,329,-598
2396,1020,1053,-4082,-72,12,8,-88,329,-598
2397,1040,1059,-4161,-75,-12,2,-88,329,-598
2398,1068,1074,-4161,-92,-41,-8,-88,329,-598
2399,1043,1050,-4155,-100,-30,-16,-74,321,-593
2400,1002,1064,-4082,-91,-13,-27,-74,321,-593
2401,1016,1037,-4098,-82,8,-29,-74,321,-593
2402,990,1043,-4033,-84,21,-25,-74,321,-593
2403,984,994,-4118,-83,44,-20,-74,321,-593
2404,998,1010,-4120,-78,33,-21,-74,321,-593
2405,1024,1019,-4149,-97,3,-33,-74,321,-593
2406,1013,1006,-4181,-104,-38,-37,-74,321,-593
2407,1025,1023,-4170,-107,-59,-32,-74,321,-593
2408,1020,1003,-4123,-104,-67,-39,-74,321,-593
2409,1001,1016,-4113,-108,-55,-30,-74,321,-593
2410,992,1000,-4087,-99,-48,-27,-74,321,-593
2411,998,1005,-4079,-98,-35,-12,-74,321,-593
2412,972,997,-4084,-75,-9,-6,-74,321,-593
2413,987,1046,-4063,-74,6,3,-74,321,-593
2414,957,1022,-3995,-69,28,4,-74,321,-593
2415,959,1041,-4045,-60,42,11,-79,319,-594
2416,976,1044,-4021,-44,60,10,-79,319,-594
2417,953,1049,-4006,-51,83,7,-79,319,-594
2418,978,1022,-4038,-69,104,-6,-79,319,-594
2419,1012,1040,-4005,-110,96,-18,-79,319,-594
2420,994,1004,-4014,-119,98,-11,-79,319,-594
2421,992,1007,-4068,-97,110,-9,-79,319,-594
2422,1009,1018,-4088,-85,110,-4,-79,319,-594
2423,1031,990,-4156,-90,90,-2,-79,319,-594
2424,1041,999,-4203,-98,72,1,-79,319,-594
2425,1062,1033,-4203,-98,31,-4,-79,319,-594
2426,1025,992,-4161,-87,-13,1,-79,319,-594
2427,1051,967,-4137,-94,-22,3,-79,319,-594
2428,1006,1003,-4095,-106,-33,9,-79,319,-594
2429,1013,989,-4130,-131,-25,13,-79,319,-594
2430,1013,1006,-4037,-136,-14,16,-79,319,-594
2431,1025,1019,-4078,-112,-1,23,-79,319,-594
2432,981,1046,-4022,-73,9,20,-79,319,-594
2433,999,1015,-4117,-33,22,18,-79,319,-594
2434,989,1013,-4100,-23,37,21,-79,319,-594
2435,989,997,-4106,-24,51,19,-79,319,-594
2436,977,1010,-4120,-22,65,15,-79,319,-594
2437,1004,1001,-4087,-33,82,22,-79,319,-594
2438,984,999,-4152,-39,94,25,-79,319,-594
2439,1000,1007,-4176,-52,104,26,-79,319,-594
2440,1010,1013,-4145,-53,106,36,-79,319,-594
2441,1035,1044,-4101,-65,73,46,-79,319,-594
2442,1069,1030,-4121,-81,21,37,-79,319,-594
2443,1026,1063,-4122,-88,5,33,-79,319,-594
2444,1020,1043,-4116,-78,35,26,-79,319,-594
2445,1003,1092,-4063,-61,67,23,-79,319,-594
2446,1042,1060,-4070,-38,101,18,-79,319,-594
2447,1025,1059,-4076,13,129,35,-79,319,-594
2448,994,1073,-4160,80,172,55,-75,322,-598
2449,972,1018,-4118,71,194,40,-75,322,-598
2450,1012,1022,-4123,77,197,26,-75,322,-598
2451,1026,1061,-4146,81,211,33,-75,322,-598
2452,1005,1061,-4153,104,232,26,-75,322,-598
2453,1030,1064,-4134,147,264,29,-75,322,-598
2454,1033,1005,-4134,139,295,22,-75,322,-598
2455,1045,1055,-4146,125,302,11,-75,322,-598
2456,1062,1001,-4146,104,273,13,-75,322,-598
2457,1064,1004,-4123,100,264,2,-75,322,-598
2458,1045,1028,-4121,94,267,9,-75,322,-598
2459,1014,1002,-4089,86,278,6,-75,322,-598
2460,1054,980,-4089,81,280,15,-75,322,-598
2461,1077,995,-4050,62,260,12,-75,322,-598
2462,1091,968,-3966,31,171,17,-75,322,-598
2463,1067,911,-3961,-11,77,38,-75,322,-598
2464,1025,899,-4002,-37,46,60,-72,316,-593
2465,1040,946,-4039,-67,79,67,-72,316,-593
2466,1062,994,-4018,-125,116,52,-72,316,-593
2467,1094,1037,-3987,-198,147,12,-72,316,-593
2468,1104,1158,-4072,-188,166,-31,-72,316,-593
2469,1104,1136,-4058,-85,137,-64,-72,316,-593
2470,1083,1068,-4169,14,79,-81,-72,316,-593
2471,1089,992,-4194,46,36,-82,-72,316,-593
2472,1086,929,-4203,17,21,-70,-72,316,-593
2473,1056,903,-4200,-33,28,-49,-72,316,-593
2474,1082,946,-4147,-72,34,-41,-72,316,-593
2475,1064,946,-4139,-66,30,-23,-72,316,-593
2476,1047,975,-4108,-69,24,-17,-72,316,-593
2477,1066,980,-4124,-64,14,-9,-72,316,-593
2478,1043,997,-4113,-65,5,1,-72,316,-593
2479,1062,950,-4115,-78,0,3,-72,316,-593
2480,1049,985,-4152,-84,-19,5,-72,316,-593
2481,1032,955,-4148,-76,-9,10,-77,326,-600
2482,1058,964,-4123,-62,-3,10,-77,326,-600
2483,1045,978,-4155,-58,17,20,-77,326,-600
2484,1068,971,-4119,-55,32,16,-77,326,-600
2485,1064,952,-4127,-52,58,27,-77,326,-600
2486,1064,984,-4116,-56,58,25,-77,326,-600
2487,1020,950,-4169,-52,47,35,-77,326,-600
2488,1062,905,-4143,-86,18,50,-77,326,-600
2489,1073,918,-4082,-120,10,64,-77,326,-600
2490,1036,972,-4084,-154,14,73,-77,326,-600
2491,1058,980,-4108,-163,24,87,-77,326,-600
2492,1068,951,-4077,-153,42,97,-77,326,-600
2493,1061,965,-4079,-150,48,107,-77,326,-600
2494,1047,976,-4046,-149,71,116,-77,326,-600
2495,1058,994,-4078,-147,96,124,-77,326,-600
2496,1022,997,-4001,-123,123,125,-77,326,-600
2497,1050,1031,-4109,-94,130,129,-68,319,-600
2498,1067,1018,-4138,-80,132,125,-68,319,-600
2499,1101,988,-4171,-83,117,107,-68,319,-600
2500,1115,999,-4185,-97,116,94,-68,319,-600
