,ax,ay,az,gx,gy,gz,cx,cy,cz
1,1852,1028,-3555,-94,101,132,34,242,-653
2,1844,1031,-3531,-60,92,131,34,242,-653
3,1824,1000,-3570,-25,69,126,34,242,-653
4,1831,995,-3536,33,64,126,34,242,-653
5,1834,993,-3550,64,47,141,34,242,-653
6,1867,970,-3550,83,41,142,34,242,-653
7,1885,996,-3562,97,18,143,34,242,-653
8,1905,1034,-3595,111,-2,138,34,242,-653
9,1911,1036,-3576,133,-31,141,34,242,-653
10,1905,1020,-3589,137,-51,137,34,242,-653
11,1935,1019,-3569,156,-65,147,34,242,-653
12,1964,1032,-3531,209,-62,154,34,242,-653
13,1945,990,-3554,227,-56,157,34,242,-653
14,1961,996,-3571,229,-69,167,34,242,-653
15,1996,934,-3617,252,-88,187,34,242,-653
16,2031,946,-3657,259,-95,206,34,242,-653
17,2046,929,-3676,281,-100,220,28,250,-659
18,2077,883,-3718,299,-103,228,28,250,-659
19,2063,894,-3726,315,-104,229,28,250,-659
20,2094,858,-3756,341,-89,239,28,250,-659
21,2111,855,-3747,350,-84,259,28,250,-659
22,2111,807,-3773,344,-83,269,28,250,-659
23,2122,762,-3832,331,-87,289,28,250,-659
24,2107,761,-3843,310,-98,306,28,250,-659
25,2116,766,-3845,283,-89,317,28,250,-659
26,2126,765,-3889,268,-84,329,28,250,-659
27,2156,754,-3847,245,-70,340,28,250,-659
28,2131,776,-3877,240,-56,337,28,250,-659
29,2164,746,-3853,224,-49,342,28,250,-659
30,2175,742,-3884,202,-36,334,28,250,-659
31,2148,767,-3868,180,-17,339,28,250,-659
32,2177,819,-3902,169,10,321,28,250,-659
33,2190,826,-3917,154,25,290,28,250,-659
34,2183,861,-3922,165,38,268,36,235,-663
35,2181,857,-3911,164,49,232,36,235,-663
36,2176,831,-3975,166,43,207,36,235,-663
37,2177,826,-3941,155,41,183,36,235,-663
38,2177,819,-3942,164,37,162,36,235,-663
39,2191,776,-3941,156,24,141,36,235,-663
40,2162,734,-3927,139,13,130,36,235,-663
41,2102,716,-3922,116,11,122,36,235,-663
42,2100,672,-3901,85,16,107,36,235,-663
43,2080,654,-3848,52,16,98,36,235,-663
44,2090,617,-3807,25,19,108,36,235,-663
45,2030,642,-3849,-1,24,117,36,235,-663
46,2038,639,-3786,-25,35,117,36,235,-663
47,2036,625,-3794,-47,49,132,36,235,-663
48,2020,654,-3780,-45,44,137,36,235,-663
49,2046,577,-3788,-45,46,151,36,235,-663
50,2032,579,-3794,-63,33,172,37,232,-656
51,2041,560,-3754,-84,30,196,37,232,-656
52,2049,608,-3757,-106,21,217,37,232,-656
53,2086,608,-3783,-129,30,224,37,232,-656
54,2117,689,-3740,-143,46,219,37,232,-656
55,2112,679,-3727,-143,60,202,37,232,-656
56,2143,712,-3740,-167,89,186,37,232,-656
57,2177,765,-3745,-192,108,171,37,232,-656
58,2189,759,-3742,-229,128,149,37,232,-656
59,2223,826,-3810,-242,141,101,37,232,-656
60,2234,822,-3824,-228,149,62,37,232,-656
61,2229,789,-3817,-207,155,11,37,232,-656
62,2269,783,-3760,-197,153,-26,37,232,-656
63,2227,719,-3792,-209,149,-79,37,232,-656
64,2206,685,-3815,-242,153,-121,37,232,-656
65,2205,634,-3810,-274,162,-173,37,232,-656
66,2191,614,-3799,-300,166,-211,34,241,-658
67,2177,593,-3772,-330,181,-250,34,241,-658
68,2155,550,-3718,-354,175,-286,34,241,-658
69,2134,523,-3721,-390,176,-307,34,241,-658
70,2099,509,-3728,-410,173,-316,34,241,-658
71,2093,463,-3724,-403,176,-320,34,241,-658
72,2095,441,-3727,-388,174,-304,34,241,-658
73,2097,345,-3716,-376,177,-285,34,241,-658
74,2096,365,-3708,-382,179,-248,34,241,-658
75,2116,354,-3699,-378,171,-216,34,241,-658
76,2144,339,-3696,-380,168,-189,34,241,-658
77,2142,344,-3714,-360,159,-149,34,241,-658
78,2159,340,-3690,-352,170,-111,34,241,-658
79,2157,329,-3667,-380,172,-70,34,241,-658
80,2153,323,-3662,-424,167,-40,34,241,-658
81,2122,406,-3729,-467,168,-6,34,241,-658
82,2110,453,-3684,-497,161,11,40,243,-658
83,2036,464,-3701,-535,144,28,40,243,-658
84,1994,497,-3656,-608,151,37,40,243,-658
85,1902,600,-3632,-673,155,41,40,243,-658
86,1827,687,-3608,-718,161,39,40,243,-658
87,1792,720,-3582,-728,135,32,40,243,-658
88,1766,805,-3544,-708,89,23,40,243,-658
89,1688,807,-3529,-696,33,22,40,243,-658
90,1666,849,-3528,-680,-22,16,40,243,-658
91,1662,899,-3480,-658,-70,-4,40,243,-658
92,1688,917,-3387,-654,-117,-29,40,243,-658
93,1734,964,-3371,-664,-141,-60,40,243,-658
94,1790,1034,-3378,-641,-150,-110,40,243,-658
95,1825,1012,-3358,-567,-136,-164,40,243,-658
96,1889,945,-3358,-497,-131,-205,40,243,-658
97,1940,889,-3388,-471,-166,-236,40,243,-658
98,2006,819,-3521,-458,-189,-272,40,243,-658
99,2028,786,-3629,-395,-155,-293,40,243,-658
100,2091,784,-3703,-331,-126,-319,40,243,-658
101,2126,710,-3757,-315,-134,-326,40,243,-658
102,2156,637,-3789,-316,-168,-327,40,243,-658
103,2090,583,-3790,-317,-196,-315,40,243,-658
104,2089,578,-3856,-320,-205,-307,40,243,-658
105,2087,522,-3904,-331,-154,-320,40,243,-658
106,2084,541,-3921,-374,-87,-351,40,243,-658
107,2129,465,-3987,-437,-20,-384,40,243,-658
108,2130,477,-4123,-545,27,-404,40,243,-658
109,2118,471,-4125,-660,44,-421,40,243,-658
110,2109,529,-4156,-742,58,-426,40,243,-658
111,2126,580,-4224,-798,43,-442,40,243,-658
112,2132,622,-4175,-882,-5,-453,40,243,-658
113,2097,604,-4139,-984,-59,-485,40,243,-658
114,2102,654,-4050,-1118,-96,-491,40,243,-658
115,2051,754,-4013,-1226,-105,-503,31,270,-646
116,2047,773,-3942,-1289,-99,-525,31,270,-646
117,2057,851,-3884,-1309,-69,-529,31,270,-646
118,2028,923,-3840,-1329,-69,-540,31,270,-646
119,2039,940,-3864,-1323,-94,-533,31,270,-646
120,2043,1004,-3807,-1307,-112,-522,31,270,-646
121,2027,1039,-3755,-1283,-142,-515,31,270,-646
122,2084,1054,-3781,-1253,-177,-497,31,270,-646
123,2059,1100,-3794,-1208,-183,-466,31,270,-646
124,2073,1114,-3758,-1171,-195,-436,31,270,-646
125,2125,1196,-3780,-1113,-186,-414,31,270,-646
126,2142,1228,-3765,-1045,-175,-387,31,270,-646
127,2158,1226,-3808,-984,-176,-375,31,270,-646
128,2157,1176,-3753,-957,-180,-352,31,270,-646
129,2146,1215,-3843,-950,-191,-330,31,270,-646
130,2140,1226,-3880,-930,-163,-328,31,294,-638
131,2147,1242,-3850,-892,-155,-312,28,294,-638
132,2170,1239,-3895,-859,-135,-316,28,294,-638
133,2151,1191,-3909,-825,-99,-314,28,294,-638
134,2149,1206,-3926,-791,-61,-307,28,294,-638
135,2139,1161,-3915,-797,-56,-304,28,294,-638
136,2097,1214,-3959,-795,-46,-302,28,294,-638
137,2141,1191,-3932,-802,-5,-308,28,294,-638
138,2126,1175,-3886,-836,19,-314,28,294,-638
139,2045,1194,-3899,-818,64,-323,28,294,-638
140,2022,1197,-3837,-804,117,-318,28,294,-638
141,2067,1152,-3810,-776,133,-322,28,294,-638
142,2048,1150,-3786,-750,161,-305,28,294,-638
143,2049,1115,-3795,-777,156,-278,28,294,-638
144,2036,1145,-3783,-801,166,-242,28,294,-638
145,2038,1179,-3747,-822,174,-214,28,294,-638
146,2057,1185,-3745,-844,153,-190,29,304,-623
147,2026,1177,-3687,-852,148,-137,29,304,-623
148,2074,1163,-3651,-928,80,-90,29,304,-623
149,1973,1238,-3650,-969,40,-34,29,304,-623
150,1978,1333,-3629,-888,116,9,29,304,-623
151,1991,1348,-3595,-823,192,19,29,304,-623
152,1995,1330,-3566,-786,233,29,29,304,-623
153,1972,1367,-3579,-779,247,47,29,304,-623
154,1949,1420,-3662,-735,275,58,29,304,-623
155,1920,1453,-3634,-645,343,40,29,304,-623
156,1876,1498,-3671,-537,428,32,29,304,-623
157,1870,1475,-3618,-466,475,17,29,304,-623
158,1834,1426,-3554,-408,482,-3,29,304,-623
159,1776,1448,-3584,-340,523,-2,29,304,-623
160,1773,1378,-3556,-313,534,3,29,304,-623
161,1742,1333,-3590,-320,555,26,29,304,-623
162,1749,1316,-3637,-256,604,65,29,304,-623
163,1821,1258,-3644,-216,558,113,29,304,-623
164,1873,1292,-3705,-159,536,161,29,304,-623
165,1902,1285,-3758,-96,470,203,29,304,-623
166,1969,1237,-3797,-114,403,247,29,304,-623
167,2027,1301,-3863,-80,325,286,29,304,-623
168,2094,1309,-3903,-6,198,304,29,304,-623
169,2129,1303,-3870,11,87,328,29,304,-623
170,2154,1339,-3787,80,7,349,29,304,-623
171,2158,1230,-3712,62,-57,404,29,304,-623
172,2086,1300,-3635,121,-72,449,29,304,-623
173,2049,1336,-3541,153,-105,505,29,304,-623
174,1950,1382,-3473,253,-108,565,29,304,-623
175,1932,1365,-3428,300,-112,621,29,304,-623
176,1938,1346,-3403,348,-76,678,29,304,-623
177,1934,1345,-3352,461,-56,714,29,304,-623
178,1901,1355,-3373,548,-62,723,29,304,-623
179,1918,1362,-3332,602,-29,735,42,319,-628
180,1934,1399,-3364,698,3,741,42,319,-628
181,1936,1414,-3365,829,32,735,42,319,-628
182,1941,1275,-3377,897,52,734,42,319,-628
183,1937,1235,-3434,927,56,731,42,319,-628
184,1968,1212,-3418,1013,55,721,42,319,-628
185,1951,1110,-3475,1038,73,719,42,319,-628
186,2015,1042,-3514,996,83,710,42,319,-628
187,2050,1062,-3520,998,64,683,42,319,-628
188,2128,997,-3549,895,-19,677,42,319,-628
189,2125,934,-3586,805,-36,673,42,319,-628
190,2151,944,-3604,716,-45,667,42,319,-628
191,2214,995,-3637,642,-63,630,42,319,-628
192,2330,1047,-3591,677,-71,599,42,319,-628
193,2314,915,-3559,606,-87,618,42,319,-628
194,2307,1029,-3550,565,-118,646,42,319,-628
195,2369,1054,-3487,739,-114,671,51,288,-628
196,2358,947,-3528,766,-147,687,51,288,-628
197,2274,1000,-3462,836,-135,684,51,288,-628
198,2325,949,-3436,858,-175,677,51,288,-628
199,2322,941,-3431,854,-202,670,51,288,-628
200,2257,900,-3362,859,-187,662,51,288,-628
201,2254,836,-3408,839,-194,655,51,288,-628
202,2264,790,-3342,825,-226,634,51,288,-628
203,2214,729,-3350,820,-237,614,51,288,-628
204,2247,701,-3300,805,-238,620,51,288,-628
205,2255,701,-3348,820,-272,640,51,288,-628
206,2242,669,-3377,878,-301,677,51,288,-628
207,2260,639,-3369,954,-375,710,51,288,-628
208,2268,596,-3408,978,-419,717,51,288,-628
209,2284,619,-3306,983,-448,721,51,288,-628
210,2268,605,-3336,984,-449,714,51,288,-628
211,2288,603,-3366,968,-468,703,46,278,-642
212,2285,583,-3386,1003,-511,704,46,278,-642
213,2290,485,-3427,1008,-560,688,46,278,-642
214,2276,432,-3426,1005,-606,726,46,278,-642
215,2266,365,-3459,1006,-638,768,46,278,-642
216,2320,368,-3446,1004,-689,798,46,278,-642
217,2202,327,-3450,994,-655,822,46,278,-642
218,2173,304,-3435,961,-643,813,46,278,-642
219,2079,311,-3451,900,-606,824,46,278,-642
220,2027,284,-3430,838,-548,821,46,278,-642
221,1876,378,-3490,800,-487,845,46,278,-642
222,1706,441,-3466,787,-436,877,46,278,-642
223,1673,511,-3357,783,-383,925,46,278,-642
224,1687,654,-3281,805,-447,959,46,278,-642
225,1759,804,-3226,873,-567,952,46,278,-642
226,1774,902,-3136,1019,-629,900,46,278,-642
227,1774,873,-3060,1194,-596,867,48,251,-654
228,1800,758,-3078,1348,-466,862,48,251,-654
229,1890,629,-3187,1480,-386,868,48,251,-654
230,1997,523,-3424,1608,-367,868,48,251,-654
231,2149,395,-3655,1667,-398,865,48,251,-654
232,2262,303,-3856,1622,-487,857,48,251,-654
233,2303,232,-4051,1516,-554,835,48,251,-654
234,2393,131,-4162,1393,-590,819,48,251,-654
235,2467,52,-4185,1254,-665,810,48,251,-654
236,2519,-14,-4311,1140,-747,800,48,251,-654
237,2535,-62,-4356,1017,-781,801,48,251,-654
238,2479,-107,-4426,884,-789,808,48,251,-654
239,2473,-132,-4438,753,-755,843,48,251,-654
240,2408,-162,-4400,619,-716,889,48,251,-654
241,2334,-128,-4269,512,-713,951,48,251,-654
242,2280,-25,-4218,446,-723,1022,48,251,-654
243,2237,108,-4137,438,-699,1100,44,219,-659
244,2204,205,-4081,444,-687,1158,44,219,-659
245,2102,292,-4062,423,-643,1192,44,219,-659
246,2093,400,-3945,402,-610,1203,44,219,-659
247,2093,496,-3848,396,-605,1181,44,219,-659
248,2016,568,-3790,397,-609,1145,44,219,-659
249,1970,644,-3710,438,-619,1093,44,219,-659
250,1959,600,-3716,467,-632,1037,44,219,-659
251,1932,668,-3656,396,-656,958,44,219,-659
252,1892,692,-3711,352,-668,864,44,219,-659
253,1865,795,-3684,338,-628,758,44,219,-659
254,1838,760,-3626,352,-586,667,44,219,-659
255,1866,774,-3666,377,-558,559,44,219,-659
256,1836,664,-3767,448,-538,471,44,219,-659
257,1905,549,-3832,497,-527,389,44,219,-659
258,1878,425,-3915,478,-485,330,44,219,-659
259,1916,271,-4024,419,-512,285,30,212,-666
260,1886,211,-4137,364,-545,269,30,212,-666
261,1929,156,-4149,339,-576,294,30,212,-666
262,1923,143,-4167,380,-637,336,30,212,-666
263,1968,45,-4118,352,-799,392,30,212,-666
264,1878,132,-4178,322,-917,442,30,212,-666
265,1850,208,-4126,336,-1026,486,30,212,-666
266,1860,247,-4069,390,-1148,539,30,212,-666
267,1892,218,-4026,420,-1331,573,30,212,-666
268,1842,312,-3974,450,-1427,626,30,212,-666
269,1803,224,-4014,501,-1389,689,30,212,-666
270,1703,319,-3896,443,-1568,694,30,212,-666
271,1726,413,-3847,551,-1700,716,30,212,-666
272,1764,431,-3812,686,-1793,710,30,212,-666
273,1814,333,-3837,701,-1892,659,30,212,-666
274,1686,288,-3887,613,-1900,606,30,212,-666
275,1710,255,-3780,518,-1880,531,12,195,-677
276,1728,200,-3751,466,-1887,495,12,195,-677
277,1711,151,-3725,399,-1955,465,12,195,-677
278,1675,37,-3657,261,-2167,364,12,195,-677
279,1654,57,-3679,168,-2390,286,12,195,-677
280,1558,89,-3686,191,-2512,276,12,195,-677
281,1501,68,-3768,211,-2694,258,12,195,-677
282,1461,74,-3834,232,-2834,247,12,195,-677
283,1483,154,-3868,167,-3019,210,12,195,-677
284,1531,204,-3878,125,-3139,174,12,195,-677
285,1492,144,-3874,38,-3244,90,12,195,-677
286,1532,149,-3998,19,-3186,81,12,195,-677
287,1394,-15,-4079,57,-3087,82,12,195,-677
288,1528,26,-4254,103,-3049,158,12,195,-677
289,1381,29,-4422,83,-2979,142,12,195,-677
290,1551,111,-4395,36,-2948,133,12,195,-677
291,1627,198,-4311,26,-2916,114,-44,189,-675
292,1626,169,-4197,16,-2923,121,-44,189,-675
293,1490,212,-4117,50,-2877,118,-44,189,-675
294,1357,284,-4006,150,-2759,69,-44,189,-675
295,1336,203,-3951,230,-2664,47,-44,189,-675
296,1321,166,-3909,292,-2593,10,-44,189,-675
297,1248,46,-3927,369,-2527,32,-44,189,-675
298,1148,-93,-3986,406,-2483,49,-44,189,-675
299,1146,-137,-4026,292,-2555,36,-44,189,-675
300,1035,-107,-4079,306,-2481,64,-44,189,-675
301,1092,-115,-4215,204,-2452,128,-44,189,-675
302,1120,-138,-4176,56,-2406,121,-44,189,-675
303,1114,-59,-4169,-102,-2347,108,-44,189,-675
304,1140,106,-4161,-263,-2287,38,-44,189,-675
305,1149,185,-4176,-387,-2216,-42,-44,189,-675
306,1162,256,-4166,-467,-2097,-125,-44,189,-675
307,1186,235,-4135,-571,-2016,-210,-108,193,-679
308,1177,298,-4391,-568,-1923,-262,-108,193,-679
309,1211,318,-4574,-473,-1845,-293,-108,193,-679
310,1255,235,-4791,-520,-1900,-353,-108,193,-679
311,1191,181,-4861,-652,-1978,-442,-108,193,-679
312,1186,91,-4833,-782,-2057,-466,-108,193,-679
313,1119,66,-4801,-956,-2012,-458,-108,193,-679
314,1008,25,-4770,-1095,-1894,-418,-108,193,-679
315,998,-18,-4722,-1234,-1758,-366,-108,193,-679
316,980,14,-4745,-1389,-1648,-301,-108,193,-679
317,888,122,-4714,-1500,-1507,-276,-108,193,-679
318,1050,-10,-4640,-1768,-1456,-235,-108,193,-679
319,958,-16,-4608,-2188,-1446,-234,-108,193,-679
320,896,145,-4465,-2506,-1290,-224,-108,193,-679
321,804,357,-4366,-2622,-1087,-195,-108,193,-679
322,826,235,-4150,-2839,-1054,-232,-108,193,-679
323,873,406,-4108,-2988,-947,-283,-145,221,-670
324,841,657,-3970,-3021,-813,-333,-145,221,-670
325,769,640,-4000,-3148,-682,-397,-145,221,-670
326,785,675,-3930,-3233,-532,-421,-145,221,-670
327,827,636,-3940,-3339,-450,-473,-145,221,-670
328,978,781,-4023,-3379,-411,-491,-145,221,-670
329,861,744,-4168,-3374,-258,-463,-145,221,-670
330,908,755,-4300,-3529,-197,-459,-145,221,-670
331,939,732,-4327,-3798,-238,-549,-145,221,-670
332,1023,913,-4369,-4098,-283,-678,-145,221,-670
333,840,1145,-4371,-4237,-198,-819,-145,221,-670
334,1034,1081,-4411,-4292,-190,-844,-145,221,-670
335,1053,1194,-4485,-4325,-204,-888,-145,221,-670
336,891,1171,-4630,-4292,-237,-918,-145,221,-670
337,966,1259,-4573,-4395,-299,-1013,-145,221,-670
338,958,1312,-4547,-4295,-383,-1052,-145,221,-670
339,903,1171,-4438,-4223,-431,-1081,-153,292,-630
340,965,1162,-4392,-4217,-434,-1037,-153,292,-630
341,706,1060,-4296,-4381,-300,-1066,-153,292,-630
342,765,1124,-4232,-4471,-174,-1026,-153,292,-630
343,760,996,-4170,-4599,-98,-964,-153,292,-630
344,679,1056,-4064,-4862,-75,-936,-153,292,-630
345,713,1068,-3885,-5175,16,-953,-153,292,-630
346,590,1170,-3831,-5474,156,-1052,-153,292,-630
347,690,1316,-3796,-5614,287,-1066,-153,292,-630
348,683,1362,-3732,-5750,372,-1068,-153,292,-630
349,735,1407,-3720,-5933,432,-1075,-153,292,-630
350,609,1286,-3718,-6151,594,-1114,-153,292,-630
351,547,1290,-3801,-6503,713,-1152,-153,292,-630
352,625,1492,-3796,-6659,859,-1191,-153,292,-630
353,715,1572,-3797,-6902,964,-1199,-153,292,-630
354,667,1588,-3777,-7142,1045,-1215,-170,404,-573
355,707,1684,-3738,-7371,1120,-1237,-170,404,-573
356,622,1767,-3631,-7423,1246,-1275,-170,404,-573
357,764,1917,-3644,-7364,1366,-1185,-170,404,-573
358,598,1873,-3736,-7417,1567,-1158,-170,404,-573
359,641,1783,-3855,-7819,1727,-1212,-170,404,-573
360,742,1798,-3755,-8227,1923,-1239,-170,404,-573
361,792,2337,-3727,-8111,2081,-1220,-170,404,-573
362,853,2281,-3697,-7942,2067,-1221,-170,404,-573
363,821,2283,-3702,-8021,2043,-1306,-170,404,-573
364,976,2592,-3614,-7988,2040,-1404,-170,404,-573
365,946,2479,-3423,-8608,2165,-1602,-170,404,-573
366,869,2498,-3306,-9169,2338,-1726,-170,404,-573
367,1025,2767,-3136,-9226,2487,-1736,-170,404,-573
368,1152,2742,-3212,-9014,2390,-1708,-170,404,-573
369,1095,2541,-3582,-9088,2335,-1624,-170,404,-573
370,968,2630,-3958,-9021,2255,-1623,-153,523,-458
371,1070,2802,-4036,-9209,2097,-1639,-153,523,-458
372,1143,2834,-3915,-9113,1749,-1621,-153,523,-458
373,1265,2873,-4060,-8998,1378,-1551,-153,523,-458
374,1047,2818,-4670,-8739,918,-1503,-153,523,-458
375,1066,2477,-5169,-8755,285,-1456,-153,523,-458
376,1100,2525,-5640,-8635,-633,-1262,-153,523,-458
377,1101,2500,-6278,-8487,-1634,-1066,-153,523,-458
378,1148,2414,-7192,-8453,-2934,-924,-153,523,-458
379,1240,2335,-7880,-8464,-4345,-810,-153,523,-458
380,1125,2260,-8176,-8520,-6019,-719,-153,523,-458
381,1345,2311,-7949,-8395,-7558,-570,-153,523,-458
382,1207,2478,-7210,-8019,-8811,-519,-153,523,-458
383,1225,2710,-5678,-7272,-9859,-524,-153,523,-458
384,1369,2339,-4406,-6858,-10317,-330,-153,523,-458
385,649,2716,-3053,-6277,-9914,-14,-187,598,-292
386,732,2859,-1421,-5693,-9446,125,-187,598,-292
387,599,3033,-926,-5531,-8364,165,-187,598,-292
388,612,3337,-722,-5636,-7298,138,-187,598,-292
389,796,3477,-996,-5777,-6606,54,-187,598,-292
390,931,3475,-1294,-6057,-5979,-55,-187,598,-292
391,803,3103,-1652,-6545,-5551,-42,-187,598,-292
392,812,2976,-1599,-7161,-5185,-120,-187,598,-292
393,970,3113,-1225,-7371,-4961,-29,-187,598,-292
394,466,2866,-1537,-7560,-4618,18,-187,598,-292
395,488,2812,-1886,-7929,-4525,53,-187,598,-292
396,564,2613,-2177,-8271,-4538,383,-187,598,-292
397,143,2415,-1820,-8319,-4707,483,-187,598,-292
398,256,2830,-1343,-8059,-4571,742,-187,598,-292
399,384,3167,-976,-7412,-4380,870,-187,598,-292
400,325,3414,-727,-6695,-4321,862,-187,598,-292
401,669,4002,-699,-5815,-4325,825,-205,633,-115
402,408,3900,-708,-5011,-4271,569,-205,633,-115
403,511,4148,-393,-4428,-4143,341,-205,633,-115
404,559,4331,-120,-3931,-3746,310,-205,633,-115
405,494,4130,50,-3576,-3472,36,-205,633,-115
406,424,3854,-96,-3540,-3111,10,-205,633,-115
407,420,3664,-131,-3757,-2822,26,-205,633,-115
408,307,3380,-149,-4140,-2445,93,-205,633,-115
409,78,3486,-42,-4242,-1983,187,-205,633,-115
410,273,3286,111,-4212,-1850,240,-205,633,-115
411,195,3239,-57,-4222,-1495,340,-205,633,-115
412,301,3231,-51,-4166,-1401,480,-205,633,-115
413,316,2623,294,-3787,-1288,1312,-205,633,-115
414,-92,3246,-420,-3673,-1094,716,-205,633,-115
415,347,3489,-180,-3839,-1080,680,-205,633,-115
416,243,3773,-84,-3218,-995,680,-186,633,-33
417,346,3932,-293,-2662,-1049,632,-186,633,-33
418,948,3451,-189,-2050,-1271,1541,-186,633,-33
419,77,3783,-1283,-1910,-1373,545,-186,633,-33
420,356,3967,-951,-2186,-1539,406,-186,633,-33
421,65,4148,-629,-1691,-1541,319,-186,633,-33
422,233,4087,-557,-1511,-1516,240,-186,633,-33
423,279,4148,-409,-1231,-1511,157,-186,633,-33
424,225,3959,-355,-1111,-1466,97,-186,633,-33
425,-3,3937,-271,-1084,-1394,67,-186,633,-33
426,0,3762,68,-940,-1325,51,-186,633,-33
427,533,3795,393,-868,-1207,55,-186,633,-33
428,372,3761,269,-793,-903,127,-186,633,-33
429,58,3645,4,-824,-761,163,-186,633,-33
430,145,3685,141,-873,-589,221,-186,633,-33
431,191,3755,139,-775,-490,264,-186,633,-33
432,187,3710,144,-726,-367,288,-186,623,-7
433,176,3775,138,-724,-240,338,-167,623,-7
434,294,3672,-41,-753,-77,392,-167,623,-7
435,336,3796,-191,-773,78,459,-167,623,-7
436,167,3797,-523,-894,171,492,-167,623,-7
437,241,3798,-651,-994,156,523,-167,623,-7
438,271,3880,-720,-972,88,533,-167,623,-7
439,286,3904,-734,-972,-2,551,-167,623,-7
440,196,3974,-695,-967,-3,572,-167,623,-7
441,225,4102,-567,-945,11,578,-167,623,-7
442,243,4226,-507,-896,38,574,-167,623,-7
443,269,4316,-450,-806,83,542,-167,623,-7
444,303,4348,-509,-769,141,520,-167,623,-7
445,367,4349,-471,-748,169,479,-167,623,-7
446,420,4412,-402,-698,167,423,-167,623,-7
447,420,4426,-213,-620,177,371,-167,623,-7
448,346,4366,-189,-525,263,349,-167,623,-7
449,343,4321,-261,-523,412,358,-163,627,17
450,382,4260,-327,-565,529,358,-163,627,17
451,329,4260,-366,-576,591,375,-163,627,17
452,325,4226,-458,-578,675,399,-163,627,17
453,330,4181,-510,-557,734,410,-163,627,17
454,281,4145,-543,-526,806,445,-163,627,17
455,354,4212,-561,-484,828,461,-163,627,17
456,342,4241,-611,-437,859,484,-163,627,17
457,350,4206,-842,-471,837,487,-163,627,17
458,384,4167,-1193,-606,749,473,-163,627,17
459,361,4182,-1103,-703,615,455,-163,627,17
460,384,4129,-889,-738,542,444,-163,627,17
461,329,4201,-762,-735,554,467,-163,627,17
462,381,4242,-655,-807,612,463,-163,627,17
463,404,4360,-524,-864,674,448,-163,627,17
464,440,4449,-415,-794,748,423,-163,627,17
465,450,4449,-333,-657,826,383,-153,630,23
466,494,4447,-339,-561,907,344,-153,630,23
467,546,4368,-356,-502,906,280,-153,630,23
468,502,4343,-313,-368,894,226,-153,630,23
469,501,4259,-192,-233,926,196,-153,630,23
470,486,4234,-192,-135,1001,197,-153,630,23
471,434,4196,-154,-49,1114,209,-153,630,23
472,401,4148,-116,28,1284,242,-153,630,23
473,371,4108,-35,79,1486,275,-153,630,23
474,371,4073,-5,175,1658,296,-153,630,23
475,422,4052,-1,315,1805,324,-153,630,23
476,471,3989,63,493,1894,339,-153,630,23
477,464,3945,108,659,1989,373,-153,630,23
478,426,3913,167,795,2141,423,-153,630,23
479,369,3882,276,926,2368,492,-153,630,23
480,389,3929,206,1088,2635,577,-153,630,23
481,381,3954,-19,1177,2893,649,-148,626,10
482,478,3878,-99,1399,3137,695,-148,626,10
483,537,3862,-287,1469,3203,684,-148,626,10
484,607,3821,-479,1453,3190,694,-148,626,10
485,568,3936,-542,1436,3187,682,-148,626,10
486,660,3850,-610,1208,3120,707,-148,626,10
487,606,4123,-644,1160,3182,729,-148,626,10
488,734,4217,-640,1320,3283,717,-148,626,10
489,689,4320,-940,1169,3284,651,-148,626,10
490,674,4489,-1173,1187,3198,533,-148,626,10
491,732,4484,-1334,1219,3049,405,-148,626,10
492,771,4280,-1242,992,2846,291,-148,626,10
493,649,4243,-997,830,2828,220,-148,626,10
494,670,4473,-770,882,2824,92,-148,626,10
495,711,4690,-792,859,2965,-230,-148,626,10
496,608,4604,-521,1116,3025,-205,-148,626,10
497,640,4540,-408,1335,3238,-253,-148,627,242
498,626,4495,-372,1464,3413,-306,-163,627,-14
499,515,4370,-260,1743,3630,-342,-163,627,-14
500,610,4364,-152,1976,3891,-384,-163,627,-14
501,532,4411,-148,2232,4186,-443,-163,627,-14
502,610,4413,-74,2521,4475,-324,-163,627,-14
503,617,4368,-65,2838,4785,-407,-163,627,-14
504,676,4344,52,3062,5079,-401,-163,627,-14
505,769,4258,142,3292,5372,-420,-163,627,-14
506,700,4488,173,3247,5672,-756,-163,627,-14
507,851,4714,211,3575,6142,-409,-163,627,-14
508,757,4269,330,4141,6484,-396,-163,627,-14
509,665,4189,251,4657,6807,-429,-163,627,-14
510,800,4087,352,5113,6960,-488,-163,627,-14
511,1216,3304,450,5203,6497,-563,-163,627,-14
512,1128,3065,-187,5197,5679,-567,-163,627,-14
513,736,2828,-1134,4924,5205,-497,-180,635,-113
514,648,2371,-1912,4126,5014,-320,-180,635,-113
515,511,2420,-2319,3324,4961,-149,-180,635,-113
516,676,2959,-2408,2470,4734,22,-180,635,-113
517,829,3180,-2330,1965,4321,176,-180,635,-113
518,891,3697,-2378,1836,3951,223,-180,635,-113
519,864,3920,-2328,1671,3629,230,-180,635,-113
520,880,3929,-2099,1585,3371,196,-180,635,-113
521,842,3892,-1848,1527,3206,133,-180,635,-113
522,793,4105,-1743,1604,3161,170,-180,635,-113
523,784,4144,-1556,1896,3176,190,-180,635,-113
524,771,4062,-1225,2245,3204,182,-180,635,-113
525,691,4034,-1046,2572,3371,129,-180,635,-113
526,627,4048,-844,3042,3665,184,-180,635,-113
527,604,4023,-738,3559,4045,313,-180,635,-113
528,611,3921,-515,4122,4438,420,-180,635,-113
529,605,3802,-440,4643,4824,548,-167,621,-183
530,626,3695,-297,5024,5154,528,-167,621,-183
531,865,3670,-264,5342,5361,691,-167,621,-183
532,628,3500,-178,5499,5687,743,-167,621,-183
533,724,3291,80,5519,5846,705,-167,621,-183
534,840,3305,18,5397,5915,749,-167,621,-183
535,823,3262,-192,5212,5956,652,-167,621,-183
536,834,3347,-653,5002,6155,485,-167,621,-183
537,998,3413,-1116,4879,6220,281,-167,621,-183
538,964,3191,-1804,4572,6230,102,-167,621,-183
539,1024,3232,-2185,4049,6258,-103,-167,621,-183
540,1212,3291,-2520,3435,6080,-260,-167,621,-183
541,1215,3284,-2738,2959,5825,-379,-167,621,-183
542,1274,3248,-2705,2469,5488,-467,-167,621,-183
543,1258,3292,-2702,2233,5034,-493,-167,621,-183
544,1173,3287,-2652,2105,4705,-435,-167,621,-183
545,1110,3262,-2596,2070,4462,-386,-147,601,-281
546,1161,3087,-2434,1915,4209,-313,-147,601,-281
547,1193,3080,-2212,1674,4004,-219,-147,601,-281
548,1228,3222,-2077,1486,3568,-108,-147,601,-281
549,1122,3272,-2015,1360,3332,-42,-147,601,-281
550,1154,3276,-1913,1275,3188,24,-147,601,-281
551,1136,3398,-1889,1340,3124,47,-147,601,-281
552,1149,3415,-1960,1442,3162,22,-147,601,-281
553,1226,3429,-2063,1563,3070,-60,-147,601,-281
554,1263,3404,-2253,1685,3030,-78,-147,601,-281
555,1278,3365,-2601,1743,2953,-147,-147,601,-281
556,1285,3274,-3027,1727,2782,-151,-147,601,-281
557,1252,3201,-3301,1463,2603,-196,-147,601,-281
558,1379,3219,-3432,1075,2314,-255,-147,601,-281
559,1428,3280,-3401,682,2021,-297,-147,601,-281
560,1451,3271,-3275,333,1680,-336,-126,592,-318
561,1470,3274,-3036,67,1349,-389,-126,592,-318
562,1524,3258,-2678,-267,1041,-421,-126,592,-318
563,1441,3369,-2342,-525,876,-444,-126,592,-318
564,1422,3461,-2133,-595,780,-452,-126,592,-318
565,1324,3507,-2009,-521,797,-482,-126,592,-318
566,1359,3557,-1844,-322,781,-472,-126,592,-318
567,1120,3421,-1761,-165,1007,-370,-126,592,-318
568,998,3460,-1676,41,1388,-320,-126,592,-318
569,934,3436,-1677,197,1665,-274,-126,592,-318
570,1123,3443,-1660,382,1682,-286,-126,592,-318
571,1135,3285,-1555,446,1531,-197,-126,592,-318
572,1027,3458,-1575,546,1625,-164,-126,592,-318
573,1050,3430,-1584,558,1731,-134,-126,592,-318
574,1163,3409,-1507,518,1797,-111,-126,592,-318
575,1271,3489,-1576,429,1797,-106,-126,592,-318
576,1146,3525,-1433,297,1940,-62,-116,583,-324
577,1025,3610,-1469,134,2483,-69,-116,583,-324
578,1273,3743,-1491,148,2736,-107,-116,583,-324
579,1346,3725,-1444,177,2960,-201,-116,583,-324
580,1409,3830,-1441,300,3112,-353,-116,583,-324
581,1395,3728,-1341,291,3319,-484,-116,583,-324
582,1593,3717,-1265,132,3298,-557,-116,583,-324
583,1446,3680,-1231,-44,3453,-592,-116,583,-324
584,1441,3871,-1381,-98,3655,-680,-116,583,-324
585,1402,3950,-1295,32,3759,-733,-116,583,-324
586,1472,3847,-1397,246,3841,-839,-116,583,-324
587,1508,3729,-1495,382,4025,-926,-116,583,-324
588,1587,3677,-1589,384,4243,-938,-116,583,-324
589,1494,3687,-1789,429,4475,-996,-116,583,-324
590,1577,3698,-2041,543,4500,-1000,-116,583,-324
591,1595,3680,-2571,705,4414,-1116,-116,583,-324
592,1723,3578,-2855,789,4064,-1135,-108,578,-337
593,1788,3399,-3143,679,3477,-1134,-108,578,-337
594,1778,3264,-3341,427,2934,-1102,-108,578,-337
595,1735,3078,-3312,4,2286,-1033,-108,578,-337
596,1792,2942,-3080,-499,1548,-889,-108,578,-337
597,1581,3056,-2966,-940,922,-742,-108,578,-337
598,1562,3154,-2781,-1232,423,-699,-108,578,-337
599,1569,3307,-2584,-1533,-2,-697,-108,578,-337
600,1583,3425,-2523,-1673,-437,-712,-108,578,-337
601,1501,3406,-2748,-1879,-750,-745,-108,578,-337
602,1442,3326,-3153,-2188,-1039,-789,-108,578,-337
603,1440,3399,-3562,-2568,-1555,-846,-108,578,-337
604,1670,3250,-4119,-3012,-2495,-820,-108,578,-337
605,1888,3101,-5415,-3367,-3789,-749,-108,578,-337
606,2062,2976,-6638,-3642,-5608,-638,-108,578,-337
607,2417,2696,-8009,-4359,-8040,-357,-125,599,-306
608,2859,2738,-9504,-5074,-10791,-80,-125,599,-306
609,3322,2553,-10134,-5808,-13620,73,-125,599,-306
610,3916,2459,-10085,-6743,-16346,189,-125,599,-306
611,4539,2341,-9278,-7092,-18574,271,-125,599,-306
612,4854,1920,-8259,-7322,-20000,486,-125,599,-306
613,5217,1654,-7134,-7244,-20641,713,-125,599,-306
614,5828,1053,-5553,-6426,-21041,1342,-125,599,-306
615,6346,650,-3148,-6397,-21554,1887,-125,599,-306
616,6235,438,392,-7378,-21879,2121,-125,599,-306
617,5991,1275,3169,-8660,-23006,2058,-125,599,-306
618,3409,2451,5411,-9278,-21612,1807,-125,599,-306
619,2061,3636,7731,-8710,-19845,1345,-125,599,-306
620,878,4916,7772,-6912,-17752,1049,-125,599,-306
621,279,4657,6398,-5904,-14684,1055,-125,599,-306
622,1022,4866,3476,-5022,-12543,929,-125,599,-306
623,1178,4580,541,-4886,-11240,539,-125,599,-306
624,1579,4175,-1267,-5776,-10678,205,-125,599,-306
625,1506,4681,-1291,-6185,-10258,-94,-125,599,-306
626,1660,5204,-399,-5391,-9754,-314,-125,599,-306
627,1442,5005,501,-4478,-9488,-395,-125,599,-306
628,1006,4610,1307,-3710,-9139,-444,-125,599,-306
629,751,4025,1743,-3602,-8950,-619,-125,599,-306
630,649,3835,2006,-3712,-8160,-544,-125,599,-306
631,251,4003,2132,-3420,-7140,-488,-125,599,-306
632,-97,3920,1816,-3390,-5847,-259,-125,599,-306
633,-240,4308,1382,-2905,-4830,-301,-125,599,-306
634,-124,4365,896,-2164,-4191,-496,-125,599,-306
635,7,4331,632,-1443,-3511,-647,-125,599,-306
636,352,4009,710,-1333,-2823,-555,-125,599,-306
637,306,4063,653,-958,-2398,-486,-125,599,-306
638,166,3840,534,-663,-1951,-325,-156,620,-10
639,447,3013,1221,-1122,-1681,-73,-156,620,-10
640,83,3636,222,-1147,-1381,-71,-156,620,-10
641,77,3721,225,-741,-784,44,-156,620,-10
642,165,3565,592,-783,-445,181,-156,620,-10
643,123,3640,621,-913,-77,303,-156,620,-10
644,200,3996,350,-709,351,398,-156,620,-10
645,314,4019,-22,-485,723,459,-156,620,-10
646,609,4019,-344,-453,725,466,-156,620,-10
647,659,4109,-701,-514,632,431,-156,620,-10
648,647,4229,-935,-579,560,396,-156,620,-10
649,666,4304,-915,-627,476,349,-156,620,-10
650,685,4343,-868,-675,389,288,-156,620,-10
651,624,4427,-899,-642,333,225,-156,620,-10
652,600,4342,-1062,-607,295,144,-156,620,-10
653,608,4261,-1062,-620,196,69,-156,620,-10
654,564,4244,-1010,-576,82,15,-152,627,-3
655,546,4277,-813,-503,4,-26,-152,627,-3
656,520,4237,-629,-497,-38,-52,-152,627,-3
657,480,4246,-570,-540,-14,-75,-152,627,-3
658,505,4229,-491,-592,-28,-91,-152,627,-3
659,483,4245,-452,-546,-23,-119,-152,627,-3
660,480,4273,-322,-430,-25,-144,-152,627,-3
661,424,4255,-233,-275,22,-174,-152,627,-3
662,406,4186,-249,-141,88,-184,-152,627,-3
663,383,4084,-287,-69,143,-183,-152,627,-3
664,452,4019,-359,-41,164,-173,-152,627,-3
665,460,3944,-502,-40,137,-163,-152,627,-3
666,454,3919,-485,-38,91,-148,-152,627,-3
667,425,3903,-442,-22,58,-131,-152,627,-3
668,379,3863,-376,-3,52,-94,-152,627,-3
669,349,3809,-266,32,112,-45,-152,627,-3
670,306,3775,-243,99,225,17,-152,627,-3
671,330,3819,-186,161,348,73,-146,617,-1
672,396,3878,-280,231,426,112,-146,617,-1
673,472,3927,-557,310,442,121,-146,617,-1
674,511,3966,-774,305,385,103,-146,617,-1
675,518,4033,-983,214,259,69,-146,617,-1
676,536,4080,-937,174,124,44,-146,617,-1
677,449,4079,-829,202,32,31,-146,617,-1
678,399,4090,-802,274,22,20,-146,617,-1
679,353,4043,-870,328,50,19,-146,617,-1
680,413,4050,-888,325,89,18,-146,617,-1
681,390,4072,-896,317,101,6,-146,617,-1
682,387,4106,-847,367,110,-18,-146,617,-1
683,430,4121,-774,444,95,-41,-146,617,-1
684,418,4090,-684,462,82,-49,-146,617,-1
685,441,4071,-597,450,106,-48,-146,617,-1
686,374,4007,-587,428,176,-46,-146,617,-1
687,349,3946,-612,408,260,-25,-156,622,-6
688,360,3875,-609,377,324,-1,-156,622,-6
689,364,3825,-606,374,366,26,-156,622,-6
690,358,3852,-665,387,410,67,-156,622,-6
691,335,3812,-580,386,460,107,-156,622,-6
692,329,3843,-571,345,542,141,-156,622,-6
693,335,3854,-540,314,648,193,-156,622,-6
694,393,3930,-524,307,753,225,-156,622,-6
695,413,4010,-436,361,865,251,-156,622,-6
696,457,4109,-470,494,945,242,-156,622,-6
697,462,4189,-520,667,1034,227,-156,622,-6
698,458,4201,-524,826,1093,213,-156,622,-6
699,469,4091,-435,965,1162,195,-156,622,-6
700,488,4084,-362,1122,1204,196,-156,622,-6
701,445,4053,-274,1290,1300,209,-156,622,-6
702,459,4005,-296,1447,1439,245,-156,622,-6
703,376,3985,-348,1587,1628,292,-156,622,-6
704,420,4031,-341,1733,1818,322,-151,629,-26
705,531,4078,-416,1819,1927,318,-151,629,-26
706,467,4160,-535,2014,2124,327,-151,629,-26
707,632,4055,-474,2059,2190,304,-151,629,-26
708,563,4048,-630,2015,2270,296,-151,629,-26
709,495,4132,-576,2044,2476,298,-151,629,-26
710,552,3970,-441,2118,2670,307,-151,629,-26
711,558,3871,-476,2039,2910,324,-151,629,-26
712,483,4022,-423,2082,3164,351,-151,629,-26
713,493,3925,-334,2093,3476,371,-151,629,-26
714,527,3896,-289,2053,3762,405,-151,629,-26
715,529,3951,-258,2087,4123,434,-151,629,-26
716,545,3858,-277,2022,4528,493,-151,629,-26
717,624,3725,-270,1966,4927,519,-151,629,-26
718,580,3806,-320,1836,5305,585,-151,629,-26
719,588,3851,-324,1878,5704,612,-151,629,-26
720,602,3736,-483,1949,6166,615,-145,622,-87
721,790,4278,-273,2466,6520,557,-145,622,-87
722,951,3736,-431,2262,6811,604,-145,622,-87
723,917,3598,-595,1906,7073,627,-145,622,-87
724,897,4132,-470,2370,7369,571,-145,622,-87
725,1187,3487,-351,2538,7193,156,-145,622,-87
726,1198,4157,-440,2151,7310,459,-145,622,-87
727,1430,4138,-623,2628,7233,278,-145,622,-87
728,1348,3920,-836,2828,7098,204,-145,622,-87
729,1285,3854,-994,2754,7114,276,-145,622,-87
730,1357,3817,-1244,2656,7143,288,-145,622,-87
731,1313,3979,-1581,2832,6999,234,-145,622,-87
732,1274,3991,-2012,2907,6836,145,-145,622,-87
733,1342,3964,-2411,2904,6526,68,-145,622,-87
734,1437,4054,-2775,3052,6012,-54,-145,622,-87
735,1372,3840,-3040,3063,5431,-122,-145,622,-87
736,1277,3725,-3118,2772,4868,-197,-145,622,-87
737,1259,3818,-3039,2533,4324,-249,-145,622,-87
738,1374,3725,-2971,2299,3564,-406,-145,622,-87
739,1171,3729,-2841,2091,2998,-393,-145,622,-87
740,947,3800,-2790,1979,2791,-264,-145,622,-87
741,821,3515,-2800,1785,2734,-316,-145,622,-87
742,840,3463,-2639,1465,2677,-306,-145,622,-87
743,1003,3380,-2390,1099,2481,-242,-145,622,-87
744,1002,3487,-2234,905,2365,-197,-145,622,-87
745,1019,3665,-2284,926,2294,-130,-145,622,-87
746,941,3532,-2152,881,2325,-165,-145,622,-87
747,1016,3648,-2097,867,2378,-164,-145,622,-87
748,968,3543,-1926,704,2450,-247,-145,622,-87
749,1028,3705,-1878,712,2521,-270,-145,622,-87
750,1145,3690,-1915,764,2419,-368,-145,622,-87
751,1114,3796,-1655,781,2407,-451,-147,622,-194
752,1071,3939,-1657,833,2587,-568,-147,622,-194
753,1153,3911,-1607,908,2705,-738,-147,622,-194
754,866,3808,-1473,963,3172,-714,-147,622,-194
755,961,3753,-1346,1185,3481,-722,-147,622,-194
756,999,3518,-1335,1341,3655,-705,-147,622,-194
757,984,3353,-1136,1305,3760,-636,-147,622,-194
758,934,3336,-1036,1274,3867,-553,-147,622,-194
759,971,3367,-990,1223,4009,-434,-147,622,-194
760,892,3385,-935,1243,4172,-392,-147,622,-194
761,946,3421,-901,1264,4377,-348,-147,622,-194
762,1024,3485,-849,1282,4533,-318,-147,622,-194
763,1036,3558,-905,1273,4686,-332,-147,622,-194
764,1095,3647,-885,1293,4881,-343,-147,622,-194
765,1180,3723,-867,1319,5020,-351,-147,622,-194
766,1136,3824,-910,1454,5184,-385,-147,622,-194
767,1103,3811,-967,1559,5425,-454,-133,607,-231
768,1228,3885,-962,1652,5600,-539,-133,607,-231
769,1221,3975,-1042,1752,5777,-603,-133,607,-231
770,1308,4010,-1113,1879,5910,-685,-133,607,-231
771,1320,4032,-1143,2004,6012,-790,-133,607,-231
772,1518,3998,-1100,2166,5802,-901,-133,607,-231
773,1257,3948,-1214,2176,5821,-1034,-133,607,-231
774,1607,3926,-1398,2174,5598,-1204,-133,607,-231
775,1069,3705,-1303,2049,6201,-1213,-133,607,-231
776,1186,3640,-1293,1921,6493,-1239,-133,607,-231
777,1468,3605,-1239,1892,6277,-1196,-133,607,-231
778,1243,3589,-1599,1876,6278,-1237,-133,607,-231
779,1255,3644,-1658,1950,6287,-1274,-133,607,-231
780,1265,3558,-1781,1873,6298,-1288,-133,607,-231
781,1309,3484,-1876,1735,6342,-1313,-133,607,-231
782,1307,3600,-1962,1606,6230,-1281,-135,598,-287
783,1400,3585,-1972,1604,6005,-1253,-135,598,-287
784,1422,3536,-1944,1609,5704,-1180,-135,598,-287
785,1351,3522,-1988,1587,5475,-1112,-135,598,-287
786,1444,3532,-1972,1519,5125,-1025,-135,598,-287
787,1303,3566,-1998,1351,4808,-958,-135,598,-287
788,1300,3640,-1989,1202,4567,-902,-135,598,-287
789,1354,3722,-1960,1085,4266,-819,-135,598,-287
790,1413,3671,-1986,1048,3954,-801,-135,598,-287
791,1330,3729,-2022,1041,3664,-774,-135,598,-287
792,1377,3625,-1958,974,3424,-783,-135,598,-287
793,1270,3548,-1808,920,3271,-811,-135,598,-287
794,1275,3430,-1595,781,3151,-787,-135,598,-287
795,1253,3388,-1554,527,3061,-715,-135,598,-287
796,1235,3629,-1480,459,3013,-689,-135,598,-287
797,1571,3671,-1082,551,2354,-627,-135,598,-287
798,1071,3631,-1300,487,2510,-612,-121,593,-316
799,1030,3705,-1261,449,2834,-653,-121,593,-316
800,1046,3765,-1254,414,3029,-632,-121,593,-316
801,1225,3682,-1165,405,3000,-616,-121,593,-316
802,1173,3684,-1052,480,2787,-563,-121,593,-316
803,1131,3541,-945,458,2575,-458,-121,593,-316
804,1097,3526,-974,299,2360,-290,-121,593,-316
805,1123,3547,-1151,186,2201,-166,-121,593,-316
806,1171,3626,-1241,142,2067,-100,-121,593,-316
807,1201,3751,-1512,175,1976,-90,-121,593,-316
808,1340,3753,-1669,251,1739,-91,-121,593,-316
809,1347,3643,-1779,292,1359,-61,-121,593,-316
810,1399,3551,-1888,191,726,72,-121,593,-316
811,1388,3510,-2196,59,-75,269,-121,593,-316
812,1595,3521,-2594,-70,-1004,415,-121,593,-316
813,1830,3344,-3743,-173,-2178,615,-121,593,-316
814,2016,3108,-4964,-563,-3638,809,-121,593,-316
815,2349,2977,-6374,-1046,-5702,1138,-121,593,-316
816,2659,2660,-7828,-1717,-8370,1668,-121,593,-316
817,3053,2314,-9541,-2695,-11626,2382,-121,593,-316
818,3420,2223,-10525,-3668,-14852,2939,-121,593,-316
819,3805,1400,-10494,-5064,-17827,3385,-121,593,-316
820,4526,918,-9325,-6976,-20513,3937,-121,593,-316
821,4487,917,-7576,-8682,-22492,4273,-121,593,-316
822,5481,691,-5931,-10450,-24301,4774,-121,593,-316
823,6399,968,-3673,-12310,-26307,4384,-121,593,-316
824,6274,1344,-529,-13337,-27322,3841,-121,593,-316
825,6127,2268,1543,-13928,-28035,3280,-121,593,-316
826,5394,3286,2984,-13214,-27908,2475,-121,593,-316
827,3974,4314,4254,-11914,-26311,1675,-121,593,-316
828,3339,4780,4669,-10205,-23932,769,-121,593,-316
829,2992,5419,4902,-7591,-22233,159,-141,625,-117
830,1612,3602,3997,-7180,-19982,-428,-141,625,-117
831,1654,4285,3601,-6785,-17437,-788,-141,625,-117
832,1628,4680,3391,-5518,-15570,-1312,-141,625,-117
833,1040,4524,3190,-4648,-13181,-1523,-141,625,-117
834,879,4406,2800,-4123,-11123,-1609,-141,625,-117
835,267,4224,1958,-3627,-9232,-1485,-141,625,-117
836,310,3928,1335,-3260,-7877,-1421,-141,625,-117
837,577,3820,873,-3017,-6866,-1170,-141,625,-117
838,165,3830,296,-2942,-6055,-1022,-141,625,-117
839,355,3849,57,-2688,-5645,-985,-141,625,-117
840,396,3810,190,-2545,-5203,-810,-141,625,-117
841,541,4237,346,-2212,-4810,-759,-141,625,-117
842,167,4131,486,-1781,-4284,-590,-141,625,-117
843,225,4117,639,-1402,-3741,-533,-141,625,-117
844,11,4221,657,-965,-3053,-431,-140,623,-18
845,64,4228,707,-446,-2409,-414,-140,623,-18
846,49,4168,668,-46,-1797,-350,-140,623,-18
847,125,3982,466,206,-1238,-260,-140,623,-18
848,149,3855,313,436,-802,-171,-140,623,-18
849,201,3692,146,520,-404,-73,-140,623,-18
850,216,3575,18,454,-73,35,-140,623,-18
851,259,3569,24,320,235,155,-140,623,-18
852,289,3677,99,200,541,286,-140,623,-18
853,372,3810,73,174,822,373,-140,623,-18
854,463,3970,-48,233,1027,435,-140,623,-18
855,568,4065,-198,337,1197,452,-140,623,-18
856,586,4151,-426,432,1336,458,-140,623,-18
857,665,4250,-625,477,1453,430,-140,623,-18
858,771,4285,-882,444,1442,369,-140,623,-18
859,861,4289,-1237,390,1303,282,-140,623,-18
860,892,4261,-1414,314,1054,179,-134,617,-32
861,849,4238,-1473,230,813,100,-134,617,-32
862,749,4184,-1434,150,608,38,-134,617,-32
863,652,4162,-1252,95,492,0,-134,617,-32
864,626,4117,-1133,82,453,-21,-134,617,-32
865,592,4031,-983,73,438,-28,-134,617,-32
866,523,4051,-906,90,459,-35,-134,617,-32
867,525,4080,-827,188,488,-40,-134,617,-32
868,504,4081,-787,327,515,-46,-134,617,-32
869,496,4088,-783,450,521,-43,-134,617,-32
870,469,3955,-813,515,562,-21,-134,617,-32
871,428,3917,-813,541,635,3,-134,617,-32
872,450,3850,-774,536,687,49,-134,617,-32
873,453,3886,-722,548,753,90,-134,617,-32
874,462,3857,-659,603,821,128,-134,617,-32
875,539,3839,-738,633,845,150,-134,617,-32
876,555,3834,-889,602,798,149,-134,617,-32
877,579,3851,-923,553,735,163,-143,621,-32
878,569,3815,-1009,523,672,173,-143,621,-32
879,556,3789,-1058,467,635,193,-143,621,-32
880,555,3780,-1055,372,612,223,-143,621,-32
881,519,3775,-996,314,629,256,-143,621,-32
882,535,3811,-1035,295,643,285,-143,621,-32
883,607,3831,-1292,242,608,303,-143,621,-32
884,658,3841,-1371,98,515,288,-143,621,-32
885,668,3940,-1406,-31,422,260,-143,621,-32
886,656,4049,-1305,-61,334,238,-143,621,-32
887,650,3985,-1292,-125,241,225,-143,621,-32
888,603,4126,-1226,-17,254,210,-143,621,-32
889,575,4053,-1137,1,259,197,-143,621,-32
890,539,4037,-1045,-12,307,191,-143,621,-32
891,552,4007,-927,24,313,195,-143,621,-32
892,510,3980,-856,88,334,204,-143,621,-32
893,510,3983,-858,157,381,211,-137,628,-43
894,549,3971,-812,192,418,222,-137,628,-43
895,535,4019,-742,218,467,226,-137,628,-43
896,566,4027,-668,321,516,230,-137,628,-43
897,532,3961,-648,453,586,245,-137,628,-43
898,496,3929,-670,501,680,283,-137,628,-43
899,495,3874,-667,543,799,319,-137,628,-43
900,462,3855,-650,612,910,363,-137,628,-43
901,491,3863,-582,714,1017,407,-137,628,-43
902,548,3874,-443,856,1141,459,-137,628,-43
903,579,3791,-359,937,1278,508,-137,628,-43
904,620,3783,-394,839,1444,572,-137,628,-43
905,645,3896,-453,699,1646,612,-137,628,-43
906,725,4116,-529,620,1825,636,-137,628,-43
907,819,4232,-519,571,1886,608,-137,628,-43
908,879,4376,-619,688,1964,622,-137,628,-43
909,684,4219,-870,790,2079,540,-123,620,-64
910,737,4059,-1285,666,2277,500,-123,620,-64
911,803,4081,-1401,485,2285,421,-123,620,-64
912,838,4099,-1551,362,2206,317,-123,620,-64
913,940,4183,-1563,354,2035,232,-123,620,-64
914,950,4101,-1489,224,1828,177,-123,620,-64
915,975,4222,-1415,149,1676,122,-123,620,-64
916,944,4377,-1479,-48,1543,-6,-123,620,-64
917,924,4454,-1338,-33,1449,-81,-123,620,-64
918,835,4234,-1200,103,1437,-118,-123,620,-64
919,746,3987,-1092,113,1410,-127,-123,620,-64
920,719,3964,-890,66,1440,-120,-123,620,-64
921,708,4048,-732,103,1524,-111,-123,620,-64
922,693,4155,-769,284,1632,-109,-123,620,-64
923,711,4080,-831,454,1817,-86,-123,620,-64
924,671,3982,-901,483,2047,-52,-123,620,-64
925,703,3890,-791,396,2288,-16,-136,626,-69
926,718,3938,-659,381,2467,29,-136,626,-69
927,756,3913,-520,442,2580,53,-136,626,-69
928,774,3985,-424,572,2684,58,-136,626,-69
929,821,4035,-373,753,2786,46,-136,626,-69
930,831,3985,-437,980,2917,18,-136,626,-69
931,820,3873,-483,988,3138,14,-136,626,-69
932,854,3876,-388,834,3389,30,-136,626,-69
933,839,3959,-331,776,3618,10,-136,626,-69
934,969,4131,-365,1078,3691,-54,-136,626,-69
935,948,4160,-681,1350,3736,-148,-136,626,-69
936,976,4021,-947,1396,3859,-262,-136,626,-69
937,1004,3959,-1164,1306,3990,-275,-136,626,-69
938,988,4060,-1272,1133,4138,-340,-136,626,-69
939,1013,4075,-1266,1002,4223,-414,-136,626,-69
940,1046,4130,-1270,1062,4223,-503,-136,626,-69
941,1082,4116,-1113,1145,4075,-556,-138,628,-102
942,1071,4097,-1051,1094,3971,-660,-138,628,-102
943,1098,4025,-987,1043,3877,-775,-138,628,-102
944,829,4142,-69,432,4088,-1117,-138,628,-102
945,1091,4570,-859,1187,4240,-924,-138,628,-102
946,982,4130,-917,1326,4317,-1139,-138,628,-102
947,868,4034,-826,1493,4532,-1172,-138,628,-102
948,984,3936,-720,1569,4629,-1150,-138,628,-102
949,849,3894,-856,1704,4803,-1190,-138,628,-102
950,735,3748,-955,1946,5118,-1172,-138,628,-102
951,872,3758,-707,2083,5377,-1093,-138,628,-102
952,832,3693,-786,2305,5637,-1041,-138,628,-102
953,988,3636,-784,2469,5889,-996,-138,628,-102
954,1018,3660,-708,2713,6008,-933,-138,628,-102
955,941,3464,-781,2771,6257,-819,-138,628,-102
956,979,3441,-861,2763,6608,-775,-138,628,-102
957,1181,3384,-627,2837,6593,-658,-154,617,-158
958,1802,4757,-1506,4561,5978,-569,-154,617,-158
959,1637,4193,-2067,6499,4780,-912,-154,617,-158
960,801,3376,-2287,5455,4942,-993,-154,617,-158
961,924,3113,-2512,3395,5453,-1277,-154,617,-158
962,821,3097,-2462,1274,6030,-1350,-154,617,-158
963,1033,3408,-1873,527,6262,-1373,-154,617,-158
964,1320,3288,-1333,717,5803,-1241,-154,617,-158
965,1079,3239,-1108,1034,5433,-1023,-154,617,-158
966,1067,3124,-1180,1114,5303,-773,-154,617,-158
967,1050,3270,-1414,1014,5213,-533,-154,617,-158
968,1097,3648,-1486,464,5426,-564,-154,617,-158
969,1164,4241,-1164,88,5574,-705,-154,617,-158
970,1187,4171,-1045,79,5607,-778,-154,617,-158
971,1199,4188,-1052,530,5377,-791,-154,617,-158
972,1161,4428,-1308,1081,5298,-886,-154,617,-158
973,1144,4351,-1647,1249,5333,-1074,-154,617,-158
974,1099,4159,-1669,1153,5437,-1216,-154,617,-158
975,956,3899,-1611,1085,5521,-1283,-154,617,-158
976,989,3613,-1538,1138,5651,-1253,-154,617,-158
977,999,3568,-1469,1128,5619,-1170,-154,617,-158
978,1022,3605,-1449,1023,5626,-1154,-154,617,-158
979,1044,3729,-1473,875,5617,-1182,-154,617,-158
980,1118,3756,-1491,744,5506,-1210,-154,617,-158
981,1103,3817,-1539,685,5462,-1254,-154,617,-158
982,1165,3870,-1588,604,5399,-1298,-154,617,-158
983,1063,3927,-1685,641,5392,-1365,-154,617,-158
984,1035,3787,-1700,711,5462,-1400,-154,617,-158
985,1310,3548,-1548,644,5437,-1387,-154,617,-158
986,1175,3589,-1384,607,5179,-1303,-154,617,-158
987,853,3626,-1596,474,5340,-1293,-154,617,-158
988,959,3746,-1598,439,5525,-1293,-167,609,-247
989,1049,3766,-1619,494,5574,-1324,-167,609,-247
990,1078,3870,-1769,520,5524,-1375,-167,609,-247
991,1080,3850,-1750,596,5415,-1412,-167,609,-247
992,1080,3876,-1810,601,4822,-1733,-167,609,-247
993,642,3916,-1633,326,4799,-1466,-167,609,-247
994,822,4047,-1337,137,4917,-1539,-167,609,-247
995,982,4022,-1209,84,4640,-1526,-167,609,-247
996,994,4024,-1189,148,4326,-1515,-167,609,-247
997,989,3933,-1117,179,4085,-1453,-167,609,-247
998,911,3871,-1235,220,3930,-1409,-167,609,-247
999,825,3790,-1183,166,3938,-1391,-167,609,-247
1000,890,3729,-1129,12,3905,-1362,-167,609,-247
1001,834,3785,-1026,-105,3877,-1314,-167,609,-247
1002,802,3743,-920,-102,3996,-1295,-167,609,-247
1003,864,3798,-922,-26,4022,-1291,-167,609,-247
1004,905,3710,-833,84,4030,-1273,-165,594,-266
1005,872,3659,-850,189,4222,-1260,-165,594,-266
1006,870,3564,-892,162,4576,-1184,-165,594,-266
1007,820,3546,-967,265,4787,-1108,-165,594,-266
1008,882,3503,-954,323,4906,-1009,-165,594,-266
1009,870,3620,-1078,488,5009,-1002,-165,594,-266
1010,863,3631,-1176,543,5255,-988,-165,594,-266
1011,936,3622,-1164,581,5450,-960,-165,594,-266
1012,967,3581,-1163,562,5456,-928,-165,594,-266
1013,1045,3771,-1146,577,5405,-908,-165,594,-266
1014,1149,3845,-1148,521,5126,-921,-165,594,-266
1015,1028,3732,-1073,517,4692,-1154,-165,594,-266
1016,724,3546,-1050,422,4478,-692,-165,594,-266
1017,674,3765,-958,406,4991,-643,-165,594,-266
1018,1114,3659,-897,298,4683,-519,-165,594,-266
1019,1110,3733,-992,128,4022,-398,-161,590,-295
1020,1035,3927,-1188,108,3336,-320,-161,590,-295
1021,908,3930,-1399,184,2910,-292,-161,590,-295
1022,916,3932,-1680,287,2625,-301,-161,590,-295
1023,987,3828,-1891,260,2262,-343,-161,590,-295
1024,1026,3723,-2222,111,1773,-344,-161,590,-295
1025,1078,3604,-2760,-71,1133,-290,-161,590,-295
1026,1308,3588,-3355,-232,84,-200,-161,590,-295
1027,1506,3552,-4170,-283,-1338,-103,-161,590,-295
1028,1747,3359,-5089,-471,-3173,6,-161,590,-295
1029,1925,3274,-6228,-852,-5394,177,-161,590,-295
1030,2024,3344,-7575,-1191,-7823,240,-161,590,-295
1031,2147,2963,-8284,-1564,-10564,384,-161,590,-295
1032,2657,2406,-8341,-1806,-13664,697,-161,590,-295
1033,2832,1899,-7822,-2310,-17364,1404,-161,590,-295
1034,2875,1491,-7061,-2968,-20815,2133,-161,590,-295
1035,2749,742,-6103,-4276,-23380,2771,-189,607,-260
1036,2776,1771,-4458,-5423,-24160,3665,-189,607,-260
1037,3262,1295,-4079,-5293,-25492,4029,-189,607,-260
1038,3972,1239,-1997,-5876,-26417,4150,-189,607,-260
1039,4508,1192,-57,-7393,-27277,4598,-189,607,-260
1040,4515,1885,987,-8496,-27444,4596,-189,607,-260
1041,4057,3387,1150,-8158,-26989,3851,-189,607,-260
1042,4205,4538,1547,-5300,-25759,2989,-189,607,-260
1043,3955,3840,1828,-4233,-24124,2855,-189,607,-260
1044,3815,3765,1734,-3553,-22339,2806,-189,607,-260
1045,3815,4051,1566,-3692,-20538,2381,-189,607,-260
1046,2886,4543,2227,-3878,-18269,1697,-189,607,-260
1047,2540,4741,3700,-3720,-16175,1073,-189,607,-260
1048,2157,5283,4474,-3236,-14192,710,-189,607,-260
1049,1637,4878,4807,-2972,-12122,550,-189,607,-260
1050,552,4904,4301,-2341,-9258,489,-162,613,-75
1051,221,4804,3586,-1851,-7148,489,-162,613,-75
1052,468,5135,2888,-1357,-5575,297,-162,613,-75
1053,625,5029,1828,-963,-4312,75,-162,613,-75
1054,984,5275,1145,-452,-3594,-229,-162,613,-75
1055,911,5165,711,96,-3035,-404,-162,613,-75
1056,730,4993,475,521,-2791,-537,-162,613,-75
1057,707,4683,477,837,-2561,-616,-162,613,-75
1058,393,4264,686,1204,-2023,-569,-162,613,-75
1059,206,3820,720,1313,-1509,-444,-162,613,-75
1060,9,3522,699,1417,-889,-258,-162,613,-75
1061,-14,3314,564,1441,-156,-33,-162,613,-75
1062,-15,3309,299,1428,485,174,-162,613,-75
1063,127,3490,-44,1453,1125,362,-162,613,-75
1064,354,3708,-331,1454,1579,482,-162,613,-75
1065,551,3964,-809,1346,1877,555,-162,613,-75
1066,713,4180,-1262,1077,1987,549,-170,615,-73
1067,918,4431,-1664,740,1977,494,-170,615,-73
1068,1011,4724,-1738,514,1895,416,-170,615,-73
1069,961,4831,-1750,334,1677,240,-170,615,-73
1070,1016,4897,-1664,326,1537,103,-170,615,-73
1071,979,4838,-1562,312,1440,-9,-170,615,-73
1072,834,4786,-1530,211,1438,-104,-170,615,-73
1073,799,4673,-1483,128,1469,-197,-170,615,-73
1074,740,4592,-1400,171,1480,-273,-170,615,-73
1075,714,4517,-1308,296,1475,-346,-170,615,-73
1076,664,4424,-1272,400,1456,-385,-170,615,-73
1077,621,4282,-1231,455,1464,-413,-170,615,-73
1078,540,4121,-1248,402,1531,-437,-170,615,-73
1079,534,4010,-1250,312,1596,-404,-170,615,-73
1080,583,4006,-1135,199,1637,-377,-170,615,-73
1081,504,3982,-1047,150,1714,-336,-170,615,-73
1082,546,3962,-1006,115,1776,-316,-172,622,-90
1083,543,3904,-1070,56,1841,-272,-172,622,-90
1084,558,3881,-1063,-13,1928,-232,-172,622,-90
1085,518,3828,-1042,-111,2024,-202,-172,622,-90
1086,574,3822,-981,-211,2115,-171,-172,622,-90
1087,586,3823,-927,-239,2204,-132,-172,622,-90
1088,619,3841,-966,-227,2231,-108,-172,622,-90
1089,631,3709,-1261,-270,2189,-104,-172,622,-90
1090,624,3700,-1342,-333,2116,-66,-172,622,-90
1091,644,3668,-1357,-407,2017,-43,-172,622,-90
1092,650,3803,-1376,-409,1936,-29,-172,622,-90
1093,677,3821,-1338,-369,1837,-14,-172,622,-90
1094,668,3907,-1457,-271,1690,-23,-172,622,-90
1095,698,3971,-1566,-224,1524,-58,-172,622,-90
1096,713,3973,-1628,-246,1363,-98,-172,622,-90
1097,708,4009,-1642,-254,1203,-128,-172,622,-90
1098,679,4013,-1720,-161,1037,-158,-169,613,-100
1099,677,3936,-1893,-91,795,-204,-169,613,-100
1100,611,3857,-1918,-58,541,-246,-169,613,-100
1101,590,3730,-1872,-64,293,-238,-169,613,-100
1102,545,3700,-1760,-78,131,-205,-169,613,-100
1103,556,3714,-1550,-98,20,-164,-169,613,-100
1104,488,3698,-1365,-133,-31,-129,-169,613,-100
1105,492,3720,-1220,-173,-12,-86,-169,613,-100
1106,479,3776,-1120,-174,46,-58,-169,613,-100
1107,497,3732,-998,-152,116,-34,-169,613,-100
1108,510,3793,-971,-107,194,-4,-169,613,-100
1109,492,3804,-935,-91,300,11,-169,613,-100
1110,562,3809,-902,-96,394,24,-169,613,-100
1111,571,3812,-847,-86,427,28,-169,613,-100
1112,575,3900,-824,-44,457,29,-169,613,-100
1113,609,3842,-844,10,449,38,-169,613,-100
1114,641,3866,-838,38,438,37,-178,617,-93
1115,650,3870,-868,68,422,34,-178,617,-93
1116,669,3893,-903,101,412,36,-178,617,-93
1117,676,3869,-902,166,385,39,-178,617,-93
1118,625,3823,-915,232,368,39,-178,617,-93
1119,626,3827,-1013,303,357,58,-178,617,-93
1120,633,3760,-1024,354,303,79,-178,617,-93
1121,616,3738,-1105,385,251,102,-178,617,-93
1122,577,3767,-1207,386,202,133,-178,617,-93
1123,578,3809,-1217,376,158,158,-178,617,-93
1124,600,3812,-1224,371,117,176,-178,617,-93
1125,589,3871,-1192,425,102,194,-178,617,-93
1126,615,3951,-1234,497,121,205,-178,617,-93
1127,627,4074,-1193,551,162,200,-178,617,-93
1128,684,4086,-1202,589,178,184,-178,617,-93
1129,658,4107,-1189,635,172,161,-178,617,-93
1130,646,4042,-1141,662,200,163,-176,619,-106
1131,605,4072,-1143,699,276,151,-176,619,-106
1132,633,4100,-1129,720,373,152,-176,619,-106
1133,643,4142,-1138,711,458,133,-176,619,-106
1134,643,4147,-1118,712,513,126,-176,619,-106
1135,660,4146,-1172,742,617,115,-176,619,-106
1136,671,4172,-1130,778,717,104,-176,619,-106
1137,669,4136,-1169,757,767,93,-176,619,-106
1138,643,4118,-1079,751,848,82,-176,619,-106
1139,671,4088,-1003,725,912,39,-176,619,-106
1140,682,4125,-917,777,1036,10,-176,619,-106
1141,693,4119,-895,873,1200,21,-176,619,-106
1142,669,4125,-889,930,1433,24,-176,619,-106
1143,641,4117,-840,960,1689,-8,-176,619,-106
1144,646,4086,-760,1029,1939,-27,-176,619,-106
1145,654,4060,-648,1120,2210,-55,-176,619,-106
1146,626,4012,-634,1274,2522,-70,-176,612,-132
1147,658,3884,-496,1362,2798,-51,-167,612,-132
1148,654,3832,-461,1449,3111,-17,-167,612,-132
1149,650,3828,-413,1563,3454,30,-167,612,-132
1150,609,3799,-453,1710,3870,55,-167,612,-132
1151,607,3677,-536,1736,4330,110,-167,612,-132
1152,667,3800,-514,1862,4836,152,-167,612,-132
1153,909,3779,-500,2053,5057,136,-167,612,-132
1154,801,3830,-637,1991,5374,16,-167,612,-132
1155,1020,3966,-443,1938,5801,35,-167,612,-132
1156,967,3767,-528,2071,6037,56,-167,612,-132
1157,1006,3794,-587,2110,6267,41,-167,612,-132
1158,1020,3794,-675,2209,6553,37,-167,612,-132
1159,1048,3868,-783,2244,6879,-28,-167,612,-132
1160,1104,3947,-846,2234,7292,-138,-167,612,-132
1161,1280,4055,-848,2263,7427,-282,-167,612,-132
1162,1299,4100,-863,2367,7555,-452,-164,611,-192
1163,1288,4089,-936,2504,7681,-539,-164,611,-192
1164,1467,4099,-1020,2619,7756,-728,-164,611,-192
1165,1330,4037,-1107,2743,7876,-752,-164,611,-192
1166,1345,4044,-1158,2788,8061,-840,-164,611,-192
1167,1341,3921,-1343,2871,8214,-945,-164,611,-192
1168,1283,4067,-1534,2901,8248,-1020,-164,611,-192
1169,1382,3923,-1621,3061,8109,-1161,-164,611,-192
1170,1450,3887,-1677,3126,7774,-1208,-164,611,-192
1171,1247,3867,-1805,3138,7829,-1255,-164,611,-192
1172,1271,3780,-1848,3099,7567,-1477,-164,611,-192
1173,1040,3605,-2053,2970,7501,-1386,-164,611,-192
1174,1240,3606,-1974,2834,7472,-1445,-164,611,-192
1175,1166,3520,-1900,2638,7462,-1405,-164,611,-192
1176,1216,3590,-1882,2368,7404,-1372,-164,611,-192
1177,1387,3611,-1844,2191,7146,-1338,-164,611,-192
1178,1322,3626,-1786,2023,6836,-1303,-155,602,-275
1179,1328,3655,-1866,1979,6568,-1268,-155,602,-275
1180,1254,3725,-1839,1927,6319,-1247,-155,602,-275
1181,1216,3630,-1795,1850,6171,-1185,-155,602,-275
1182,1229,3521,-1789,1661,6061,-1126,-155,602,-275
1183,1144,3562,-1801,1537,5910,-1071,-155,602,-275
1184,1293,3579,-1835,1414,5667,-1012,-155,602,-275
1185,1237,3632,-1901,1336,5496,-979,-155,602,-275
1186,1241,3594,-1905,1243,5336,-947,-155,602,-275
1187,1260,3602,-1934,1202,5166,-921,-155,602,-275
1188,1277,3628,-1940,1152,4983,-915,-155,602,-275
1189,1323,3623,-1930,1113,4694,-912,-155,602,-275
1190,1282,3627,-1780,1011,4476,-928,-155,602,-275
1191,1193,3677,-1671,823,4507,-963,-155,602,-275
1192,1258,3718,-1509,772,4611,-983,-155,602,-275
1193,1239,3795,-1481,843,4779,-1000,-128,580,-316
1194,1230,3801,-1348,956,4891,-1009,-128,580,-316
1195,1192,3782,-1259,1031,5058,-1029,-128,580,-316
1196,1151,3846,-1215,1148,5266,-1039,-128,580,-316
1197,1177,3811,-1196,1167,5338,-1006,-128,580,-316
1198,1039,3827,-1254,1262,5485,-1014,-128,580,-316
1199,1186,3763,-1262,1376,5464,-986,-128,580,-316
1200,1121,3700,-1351,1432,5406,-928,-128,580,-316
1201,1202,3592,-1456,1443,5234,-868,-128,580,-316
1202,1139,3562,-1547,1381,5009,-770,-128,580,-316
1203,1098,3522,-1675,1297,4852,-698,-128,580,-316
1204,1284,3455,-1728,1178,4588,-627,-128,580,-316
1205,1227,3454,-1838,993,4288,-550,-128,580,-316
1206,1390,3471,-1865,832,3927,-501,-128,580,-316
1207,1227,3507,-1950,658,3646,-439,-128,580,-316
1208,1445,3511,-1900,542,3352,-414,-128,580,-316
1209,1533,3477,-1833,440,3035,-447,-112,566,-350
1210,1310,3586,-1804,361,3025,-512,-112,566,-350
1211,1357,3536,-1654,248,2933,-505,-112,566,-350
1212,1321,3594,-1529,240,3022,-534,-112,566,-350
1213,1294,3664,-1384,254,3180,-556,-112,566,-350
1214,1183,3714,-1314,285,3276,-557,-112,566,-350
1215,1195,3773,-1285,363,3345,-536,-112,566,-350
1216,1162,3776,-1247,431,3404,-513,-112,566,-350
1217,1221,3784,-1273,526,3413,-476,-112,566,-350
1218,1272,3711,-1317,579,3347,-451,-112,566,-350
1219,1196,3648,-1415,569,3244,-452,-112,566,-350
1220,1346,3631,-1394,506,3080,-489,-112,566,-350
1221,1286,3579,-1301,343,2895,-482,-112,566,-350
1222,1301,3584,-1425,215,2616,-437,-112,566,-350
1223,1285,3597,-1461,128,2362,-380,-112,566,-350
1224,1348,3556,-1499,85,2100,-348,-91,573,-362
1225,1308,3562,-1586,51,1911,-340,-91,573,-362
1226,1251,3527,-1554,-37,1700,-304,-91,573,-362
1227,1199,3574,-1516,-130,1416,-246,-91,573,-362
1228,1124,3611,-1487,-187,1075,-187,-91,573,-362
1229,1077,3618,-1406,-225,706,-137,-91,573,-362
1230,985,3637,-1431,-253,383,-92,-91,573,-362
1231,873,3624,-1349,-273,67,-13,-91,573,-362
1232,812,3679,-1340,-255,-300,129,-91,573,-362
1233,810,3791,-1473,-280,-919,346,-91,573,-362
1234,820,3872,-1821,-218,-1817,625,-91,573,-362
1235,1033,4074,-2410,91,-3121,921,-91,573,-362
1236,898,3750,-2550,-113,-4331,1124,-91,573,-362
1237,1188,3892,-3233,-353,-5691,1544,-91,573,-362
1238,1688,3778,-4201,-547,-7548,1922,-91,573,-362
1239,2056,3823,-5156,-629,-9823,2231,-91,573,-362
1240,2424,3798,-6387,-577,-12223,2399,-90,565,-348
1241,2789,3286,-7403,-815,-14756,2628,-90,565,-348
1242,3147,2366,-7636,-1539,-17369,2893,-90,565,-348
1243,2908,1870,-7318,-3115,-19007,2949,-90,565,-348
1244,2881,1376,-6791,-4977,-19987,3107,-90,565,-348
1245,3285,1716,-5939,-6147,-20762,3050,-90,565,-348
1246,4100,1707,-4487,-6208,-22151,2741,-90,565,-348
1247,4478,1972,-2261,-6568,-23550,2882,-90,565,-348
1248,4200,696,-3249,-6685,-24854,2614,-90,565,-348
1249,5005,846,-69,-8145,-25519,2710,-90,565,-348
1250,3928,1622,1658,-9039,-25175,2596,-90,565,-348
1251,2760,2564,3203,-9703,-23693,2614,-90,565,-348
1252,2163,3356,3662,-8853,-21818,2510,-90,565,-348
1253,1744,3850,3711,-7288,-19679,2258,-90,565,-348
1254,1710,3895,3375,-6417,-17818,2128,-90,565,-348
1255,1479,4211,2543,-5394,-15948,1953,-182,612,-173
1256,1146,4370,1457,-4639,-14181,1761,-182,612,-173
1257,985,4526,568,-3707,-12224,1467,-182,612,-173
1258,1318,4544,182,-2923,-10742,1199,-182,612,-173
1259,1262,4538,238,-2248,-9556,900,-182,612,-173
1260,1054,4579,404,-1973,-8480,692,-182,612,-173
1261,1106,4664,457,-1710,-7584,427,-182,612,-173
1262,923,4777,519,-1582,-6723,203,-182,612,-173
1263,938,4537,547,-1602,-5972,90,-182,612,-173
1264,632,4501,456,-1411,-5112,-44,-182,612,-173
1265,577,4365,315,-1301,-4473,-213,-182,612,-173
1266,603,4447,125,-1079,-3831,-352,-182,612,-173
1267,463,4497,-132,-706,-3259,-398,-182,612,-173
1268,463,4283,-390,-432,-2649,-393,-182,612,-173
1269,402,4218,-838,-203,-2168,-403,-182,612,-173
1270,272,4132,-1103,-52,-1703,-382,-182,612,-173
1271,454,4019,-1170,35,-1408,-353,-184,620,-116
1272,440,3980,-1250,106,-1156,-309,-184,620,-116
1273,308,3949,-1281,223,-950,-264,-184,620,-116
1274,328,3868,-1196,227,-756,-219,-184,620,-116
1275,321,3807,-1065,151,-524,-159,-184,620,-116
1276,374,3779,-882,72,-310,-88,-184,620,-116
1277,321,3845,-764,110,-59,-17,-184,620,-116
1278,315,3891,-752,216,229,38,-184,620,-116
1279,331,4009,-799,341,508,24,-184,620,-116
1280,428,4092,-867,496,803,53,-184,620,-116
1281,544,4130,-1017,636,963,37,-184,620,-116
1282,640,4095,-1123,702,1022,10,-184,620,-116
1283,676,4061,-1253,664,1007,-19,-184,620,-116
1284,720,4031,-1366,589,962,-29,-184,620,-116
1285,738,4012,-1392,488,907,-31,-184,620,-116
1286,746,4028,-1398,409,819,-22,-184,620,-116
1287,708,4059,-1397,363,748,-27,-179,610,-132
1288,682,4036,-1406,335,722,-40,-179,610,-132
1289,649,4025,-1417,368,726,-56,-179,610,-132
1290,648,3963,-1437,382,721,-57,-179,610,-132
1291,612,3923,-1448,359,693,-56,-179,610,-132
1292,573,3879,-1534,379,671,-46,-179,610,-132
1293,554,3864,-1540,409,653,-39,-179,610,-132
1294,558,3849,-1517,418,624,-22,-179,610,-132
1295,552,3800,-1509,388,600,13,-179,610,-132
1296,526,3824,-1454,338,582,47,-179,610,-132
1297,534,3825,-1401,305,580,69,-179,610,-132
1298,508,3765,-1344,260,590,98,-179,610,-132
1299,483,3791,-1286,245,621,122,-179,610,-132
1300,496,3822,-1241,282,689,147,-179,610,-132
1301,494,3848,-1193,344,771,169,-179,610,-132
1302,532,3787,-1138,376,824,186,-179,610,-132
1303,508,3783,-1104,389,882,214,-188,613,-138
1304,533,3770,-1246,383,966,230,-188,613,-138
1305,547,3780,-1314,342,1016,259,-188,613,-138
1306,621,3758,-1503,247,967,278,-188,613,-138
1307,623,3801,-1660,159,864,267,-188,613,-138
1308,670,3781,-1740,86,738,243,-188,613,-138
1309,677,3789,-1733,-13,627,226,-188,613,-138
1310,689,3786,-1729,-91,501,212,-188,613,-138
1311,698,3796,-1596,-183,375,223,-188,613,-138
1312,629,3844,-1434,-240,319,232,-188,613,-138
1313,624,3860,-1397,-240,298,230,-188,613,-138
1314,597,3926,-1430,-207,318,196,-188,613,-138
1315,650,3928,-1491,-162,322,177,-188,613,-138
1316,640,3895,-1512,-128,326,162,-188,613,-138
1317,636,3927,-1557,-82,363,149,-188,613,-138
1318,619,3922,-1497,-57,371,129,-188,613,-138
1319,656,3957,-1447,-6,359,124,-180,617,-142
1320,625,3943,-1408,41,317,107,-180,617,-142
1321,665,4011,-1358,95,284,94,-180,617,-142
1322,643,3988,-1320,147,284,81,-180,617,-142
1323,642,3948,-1294,172,310,64,-180,617,-142
1324,634,3919,-1234,180,350,62,-180,617,-142
1325,611,3838,-1250,187,396,67,-180,617,-142
1326,615,3834,-1209,223,443,77,-180,617,-142
1327,586,3827,-1245,278,508,93,-180,617,-142
1328,579,3817,-1247,326,576,112,-180,617,-142
1329,580,3789,-1216,349,652,135,-180,617,-142
1330,583,3789,-1285,348,725,155,-180,617,-142
1331,589,3819,-1305,344,813,174,-180,617,-142
1332,608,3855,-1366,336,905,173,-180,617,-142
1333,654,3872,-1337,302,983,162,-180,617,-142
1334,679,3863,-1293,252,1020,142,-180,617,-142
1335,643,3901,-1341,273,1067,137,-170,611,-156
1336,618,3867,-1341,325,1182,132,-170,611,-156
1337,615,3829,-1317,371,1321,144,-170,611,-156
1338,584,3796,-1295,359,1499,163,-170,611,-156
1339,602,3795,-1278,364,1671,176,-170,611,-156
1340,586,3800,-1248,396,1886,196,-170,611,-156
1341,593,3892,-1195,487,2117,200,-170,611,-156
1342,605,3917,-1089,610,2379,206,-170,611,-156
1343,641,3941,-1048,721,2663,198,-170,611,-156
1344,664,3964,-1018,829,2936,176,-170,611,-156
1345,705,3996,-1016,924,3238,163,-170,611,-156
1346,699,3975,-1029,1014,3549,115,-170,611,-156
1347,697,3980,-1021,1118,3848,62,-170,611,-156
1348,730,3957,-1064,1176,4117,-16,-170,611,-156
1349,878,3864,-1018,1160,4252,-71,-170,611,-156
1350,793,3927,-1008,1197,4412,-131,-170,611,-156
1351,896,3891,-1005,1181,4510,-172,-168,613,-177
1352,861,3878,-1051,1173,4698,-221,-168,613,-177
1353,895,3927,-1053,1210,4974,-237,-168,613,-177
1354,982,4001,-1025,1345,5118,-318,-168,613,-177
1355,1015,3939,-1037,1400,5274,-407,-168,613,-177
1356,928,3881,-1093,1485,5469,-495,-168,613,-177
1357,1075,3881,-1062,1642,5585,-543,-168,613,-177
1358,1125,3801,-1041,1718,5572,-714,-168,613,-177
1359,1115,3917,-1011,1758,5837,-627,-168,613,-177
1360,1019,3901,-1202,1876,6146,-665,-168,613,-177
1361,1027,3842,-1196,2093,6356,-759,-168,613,-177
1362,1196,3785,-1241,2327,6499,-818,-168,613,-177
1363,1143,3649,-1138,2486,6684,-852,-168,613,-177
1364,1102,3563,-1166,2564,6956,-865,-168,613,-177
1365,1066,3549,-1239,2667,7261,-922,-168,613,-177
1366,1127,3572,-1236,2742,7473,-915,-168,613,-177
1367,1323,3531,-1246,2805,7523,-938,-168,613,-177
1368,1185,3519,-1176,2868,7250,-1110,-168,613,-177
1369,1139,3481,-1411,2925,7354,-1115,-168,613,-177
1370,1009,3439,-1322,2848,7893,-1092,-168,613,-177
1371,1141,3592,-1348,2782,8554,-1142,-168,613,-177
1372,1383,3673,-1443,2758,8517,-1095,-168,613,-177
1373,1498,3633,-1462,2597,8169,-1085,-168,613,-177
1374,1412,3868,-1626,2511,7896,-1051,-168,613,-177
1375,1320,3920,-1675,2582,7738,-1174,-168,613,-177
1376,1366,3859,-1664,2571,7701,-1252,-168,613,-177
1377,1308,3789,-1717,2464,7798,-1222,-168,613,-177
1378,1492,3735,-1674,2286,7674,-1214,-168,613,-177
1379,1515,3816,-1767,2220,7461,-1215,-168,613,-177
1380,1451,3878,-1917,2114,7265,-1223,-168,613,-177
1381,1532,3884,-1887,2125,6960,-1212,-168,613,-177
1382,1423,3769,-2046,2028,6904,-1274,-125,581,-312
1383,1479,3729,-2019,1915,6806,-1272,-125,581,-312
1384,1523,3656,-2024,1817,6676,-1260,-125,581,-312
1385,1538,3668,-1951,1647,6500,-1257,-125,581,-312
1386,1523,3677,-1985,1575,6405,-1244,-125,581,-312
1387,1469,3714,-2019,1506,6277,-1276,-125,581,-312
1388,1525,3751,-2060,1434,6135,-1283,-125,581,-312
1389,1569,3709,-2074,1372,5844,-1270,-125,581,-312
1390,1473,3686,-2078,1307,5688,-1262,-125,581,-312
1391,1467,3616,-2153,1217,5510,-1251,-125,581,-312
1392,1526,3557,-2183,1161,5269,-1224,-125,581,-312
1393,1535,3521,-2236,1111,5067,-1245,-125,581,-312
1394,1635,3488,-2210,1060,4675,-1243,-125,581,-312
1395,1444,3405,-2194,908,4528,-1225,-125,581,-312
1396,1462,3412,-2129,707,4438,-1199,-125,581,-312
1397,1535,3427,-2086,521,4153,-1148,-112,571,-353
1398,1507,3502,-1947,385,3870,-1116,-112,571,-353
1399,1418,3557,-1789,260,3626,-1061,-112,571,-353
1400,1365,3609,-1751,164,3480,-1035,-112,571,-353
1401,1317,3736,-1654,137,3331,-1015,-112,571,-353
1402,1299,3755,-1632,146,3195,-992,-112,571,-353
1403,1266,3751,-1634,194,3003,-929,-112,571,-353
1404,1263,3676,-1637,182,2842,-874,-112,571,-353
1405,1254,3661,-1671,213,2712,-821,-112,571,-353
1406,1216,3664,-1639,241,2641,-777,-112,571,-353
1407,1297,3638,-1648,200,2512,-724,-112,571,-353
1408,1319,3605,-1558,155,2293,-667,-112,571,-353
1409,1261,3625,-1661,138,2093,-593,-112,571,-353
1410,1333,3595,-1623,70,1974,-536,-112,571,-353
1411,1325,3612,-1610,29,1797,-469,-112,571,-353
1412,1368,3603,-1527,71,1542,-427,-112,571,-353
1413,1260,3470,-1475,48,1390,-339,-100,571,-362
1414,1231,3463,-1520,-33,1228,-280,-100,571,-362
1415,1294,3496,-1469,-112,971,-229,-100,571,-362
1416,1248,3481,-1606,-203,758,-199,-100,571,-362
1417,1153,3560,-1557,-292,634,-180,-100,571,-362
1418,1122,3610,-1540,-337,499,-149,-100,571,-362
1419,1057,3741,-1520,-370,380,-121,-100,571,-362
1420,1037,3817,-1431,-380,255,-136,-100,571,-362
1421,1035,3913,-1315,-405,103,-140,-100,571,-362
1422,1062,3963,-1226,-431,-38,-181,-100,571,-362
1423,1121,3874,-1280,-386,-179,-256,-100,571,-362
1424,1216,3750,-1196,-370,-403,-265,-100,571,-362
1425,1331,3566,-1257,-439,-746,-201,-100,571,-362
1426,1351,3505,-1463,-518,-1174,-117,-100,571,-362
1427,1327,3576,-1754,-631,-1752,34,-100,571,-362
1428,1258,3701,-2064,-776,-2596,219,-100,568,-362
1429,1294,3767,-2604,-909,-3764,485,-95,568,-349
1430,1513,3699,-3303,-931,-5088,742,-95,568,-349
1431,1688,3618,-4118,-974,-6714,1116,-95,568,-349
1432,1785,3442,-4771,-1222,-8735,1441,-95,568,-349
1433,1889,3021,-5375,-1625,-10848,1718,-95,568,-349
1434,1934,2781,-5843,-2291,-12846,2020,-95,568,-349
1435,2155,2606,-6202,-3086,-15017,2511,-95,568,-349
1436,2256,2287,-6445,-3974,-17001,2704,-95,568,-349
1437,2496,2108,-6130,-4905,-18329,3028,-95,568,-349
1438,2915,1904,-5561,-6065,-19246,2993,-95,568,-349
1439,3553,2496,-4210,-6890,-20393,2957,-95,568,-349
1440,4297,2002,-4888,-7187,-21986,2701,-95,568,-349
1441,5868,2263,-2104,-8556,-24138,2312,-95,568,-349
1442,5074,2290,334,-9830,-25517,1930,-95,568,-349
1443,4260,2819,1429,-9896,-25902,1762,-95,568,-349
1444,3179,3321,1921,-9060,-24992,1540,-179,608,-216
1445,2024,3190,2017,-7996,-23069,1302,-179,608,-216
1446,1695,3033,2111,-7260,-21196,1227,-179,608,-216
1447,1398,2998,1973,-7304,-19349,1181,-179,608,-216
1448,768,2950,1915,-7321,-16950,1074,-179,608,-216
1449,852,3711,2285,-7131,-14870,936,-179,608,-216
1450,410,4497,2413,-6254,-12572,779,-179,608,-216
1451,636,4786,2603,-5059,-10686,561,-179,608,-216
1452,657,5136,2257,-3400,-8695,496,-179,608,-216
1453,333,4657,1459,-2644,-7273,346,-179,608,-216
1454,845,4709,963,-2132,-6422,216,-179,608,-216
1455,524,4691,368,-1650,-5697,-148,-179,608,-216
1456,742,4509,213,-1272,-5068,-246,-179,608,-216
1457,684,4286,11,-1075,-4592,-238,-179,608,-216
1458,495,4192,-247,-731,-4215,-294,-179,608,-216
1459,444,4017,-681,-635,-3903,-255,-183,620,-84
1460,316,3817,-904,-652,-3584,-197,-183,620,-84
1461,272,3704,-1125,-691,-3326,-214,-183,620,-84
1462,258,3888,-1170,-751,-3023,-174,-183,620,-84
1463,243,4036,-1089,-651,-2686,-124,-183,620,-84
1464,244,4049,-1062,-469,-2353,-153,-183,620,-84
1465,241,4093,-1107,-362,-2041,-185,-183,620,-84
1466,321,4080,-1144,-347,-1789,-237,-183,620,-84
1467,307,4012,-1013,-404,-1563,-232,-183,620,-84
1468,352,4090,-959,-399,-1372,-212,-183,620,-84
1469,283,4053,-896,-340,-1088,-176,-183,620,-84
1470,290,3941,-887,-312,-813,-138,-183,620,-84
1471,312,3856,-796,-366,-635,-84,-183,620,-84
1472,324,3878,-729,-451,-464,-40,-183,620,-84
1473,389,3940,-738,-463,-256,2,-183,620,-84
1474,415,3965,-740,-536,-111,17,-183,620,-84
1475,475,4015,-769,-600,-18,25,-179,612,-72
1476,538,4031,-788,-611,29,25,-179,612,-72
1477,552,4076,-813,-595,84,18,-179,612,-72
1478,518,4069,-805,-590,167,20,-179,612,-72
1479,486,4083,-724,-611,289,27,-179,612,-72
1480,513,4103,-664,-603,429,35,-179,612,-72
1481,566,4181,-632,-546,507,28,-179,612,-72
1482,595,4226,-605,-400,537,2,-179,612,-72
1483,590,4197,-590,-239,540,-27,-179,612,-72
1484,587,4161,-648,-91,562,-52,-179,612,-72
1485,552,4110,-710,52,591,-66,-179,612,-72
1486,528,4030,-715,155,584,-66,-179,612,-72
1487,538,3938,-916,248,556,-63,-179,612,-72
1488,538,3825,-1057,289,449,-41,-179,612,-72
1489,500,3728,-1143,271,322,6,-179,612,-72
1490,442,3733,-1254,211,248,49,-179,612,-72
1491,420,3822,-1206,150,196,91,-179,612,-72
1492,409,3894,-1145,116,184,122,-183,611,-60
1493,412,3963,-1044,102,205,147,-183,611,-60
1494,406,4020,-1082,115,257,162,-183,611,-60
1495,435,3999,-1049,118,299,157,-183,611,-60
1496,464,4068,-1064,117,329,159,-183,611,-60
1497,416,4077,-981,139,355,142,-183,611,-60
1498,457,4038,-989,142,382,124,-183,611,-60
1499,451,3999,-878,113,388,125,-183,611,-60
1500,475,3976,-821,70,402,132,-183,611,-60
1501,487,4002,-735,48,434,146,-183,611,-60
1502,427,4029,-702,92,509,157,-183,611,-60
1503,457,4088,-667,150,557,148,-183,611,-60
1504,551,4106,-598,234,585,140,-183,611,-60
1505,473,4099,-658,334,657,106,-183,611,-60
1506,505,4053,-715,438,742,83,-183,611,-60
1507,506,4004,-697,543,778,82,-183,611,-60
1508,488,3950,-772,619,791,78,-183,621,-73
1509,488,3880,-836,702,790,87,-183,621,-73
1510,474,3887,-876,758,778,100,-183,621,-73
1511,481,3856,-823,791,765,116,-183,621,-73
1512,514,3886,-906,852,757,123,-183,621,-73
1513,503,3933,-947,941,724,126,-183,621,-73
1514,599,3855,-979,1009,630,124,-183,621,-73
1515,574,3876,-1142,1050,464,141,-183,621,-73
1516,475,3879,-1257,1133,377,135,-183,621,-73
1517,558,3869,-1252,1207,283,144,-183,621,-73
1518,545,3836,-1258,1194,189,214,-183,621,-73
1519,488,3890,-1232,1161,86,188,-183,621,-73
1520,486,3935,-1236,1220,93,151,-183,621,-73
1521,491,3927,-1148,1229,104,144,-183,621,-73
1522,522,3936,-1034,1226,91,138,-183,621,-73
1523,495,3917,-999,1302,94,142,-183,621,-73
1524,462,3927,-1011,1415,144,153,-174,615,-104
1525,501,3880,-1021,1478,195,167,-174,615,-104
1526,475,3903,-1041,1518,239,173,-174,615,-104
1527,515,3899,-1023,1599,255,184,-174,615,-104
1528,531,3942,-1131,1711,222,183,-174,615,-104
1529,562,3913,-1160,1815,140,199,-174,615,-104
1530,559,3898,-1247,1924,72,199,-174,615,-104
1531,577,3910,-1339,2028,-5,205,-174,615,-104
1532,577,3934,-1369,2146,-68,219,-174,615,-104
1533,574,3942,-1289,2302,-125,234,-174,615,-104
1534,601,3941,-1245,2512,-193,250,-174,615,-104
1535,621,3905,-1244,2723,-286,271,-174,615,-104
1536,614,3921,-1244,2964,-386,294,-174,615,-104
1537,626,3913,-1203,3180,-497,313,-174,615,-104
1538,646,3881,-1191,3374,-595,369,-174,615,-104
1539,558,3734,-1125,3510,-683,435,-174,615,-104
1540,546,3797,-1211,3831,-835,453,-176,613,-147
1541,510,3969,-1367,4393,-868,449,-176,613,-147
1542,626,3793,-1298,4756,-966,490,-176,613,-147
1543,608,3781,-1274,5121,-1053,537,-176,613,-147
1544,585,3745,-1297,5413,-1136,592,-176,613,-147
1545,599,3694,-1290,5649,-1207,681,-176,613,-147
1546,611,3907,-1360,6229,-1349,645,-176,613,-147
1547,588,3755,-1429,6659,-1465,664,-176,613,-147
1548,575,3610,-1495,6918,-1540,702,-176,613,-147
1549,561,3552,-1556,7113,-1630,750,-176,613,-147
1550,492,3573,-1729,7303,-1666,779,-176,613,-147
1551,463,3407,-1841,7353,-1688,804,-176,613,-147
1552,504,3510,-1957,7466,-1722,819,-176,613,-147
1553,488,3548,-2020,7716,-1716,834,-176,613,-147
1554,462,3307,-2129,7749,-1673,879,-176,613,-147
1555,442,3216,-2323,7658,-1615,911,-176,613,-147
1556,556,3194,-2428,7683,-1700,934,-173,595,-277
1557,582,3268,-2441,7804,-1818,937,-173,595,-277
1558,581,3299,-2500,7863,-1931,940,-173,595,-277
1559,568,3161,-2493,7742,-1973,972,-173,595,-277
1560,664,3284,-2432,7834,-1997,974,-173,595,-277
1561,605,3316,-2428,7918,-2034,963,-173,595,-277
1562,616,3358,-2486,8102,-2081,913,-173,595,-277
1563,648,3200,-2477,8161,-2138,886,-173,595,-277
1564,581,3123,-1917,8127,-2000,929,-173,595,-277
1565,640,3081,-1807,8390,-1892,966,-173,595,-277
1566,465,3151,-2129,8850,-1785,891,-173,595,-277
1567,493,3120,-2544,9314,-1786,830,-173,595,-277
1568,580,2845,-2868,9812,-2059,770,-173,595,-277
1569,563,2390,-2779,9913,-2245,767,-173,595,-277
1570,366,2494,-2908,10104,-2303,775,-173,595,-277
1571,226,2346,-3052,10238,-2270,755,-173,501,-434
1572,307,2167,-3016,10212,-2121,756,-173,501,-434
1573,429,2187,-2943,10071,-2138,709,-173,501,-434
1574,219,1988,-3178,9822,-1915,697,-173,501,-434
1575,271,2144,-3268,9705,-1875,663,-173,501,-434
1576,314,2049,-3418,9711,-1841,561,-173,501,-434
1577,313,1891,-3523,9531,-1827,487,-173,501,-434
1578,228,1716,-3864,9270,-1861,399,-173,501,-434
1579,270,1541,-4262,8806,-1898,315,-173,501,-434
1580,266,1330,-4245,8017,-1866,236,-173,501,-434
1581,155,1242,-4172,7125,-1638,181,-173,501,-434
1582,39,1300,-4069,6467,-1358,152,-173,501,-434
1583,70,1299,-4111,6001,-1134,103,-173,501,-434
1584,99,1225,-4268,5508,-996,78,-173,501,-434
1585,99,1085,-4363,4877,-849,55,-173,501,-434
1586,79,1007,-4456,4164,-644,28,-173,501,-434
1587,60,961,-4617,3528,-458,13,-203,388,-543
1588,103,925,-4603,2948,-291,19,-203,388,-543
1589,139,973,-4578,2382,-143,38,-203,388,-543
1590,131,971,-4584,1929,-24,42,-203,388,-543
1591,147,1077,-4613,1564,84,67,-203,388,-543
1592,211,1066,-4643,1334,100,100,-203,388,-543
1593,282,1156,-4556,1246,73,141,-203,388,-543
1594,275,1237,-4531,1293,19,190,-203,388,-543
1595,283,1300,-4548,1414,-17,238,-203,388,-543
1596,326,1299,-4638,1505,-74,261,-203,388,-543
1597,337,1349,-4632,1617,-142,281,-203,388,-543
1598,330,1456,-4767,1790,-201,277,-203,388,-543
1599,384,1502,-4811,1990,-294,260,-203,388,-543
1600,388,1508,-4817,2158,-404,224,-203,388,-543
1601,345,1469,-4836,2280,-475,193,-203,388,-543
1602,348,1400,-4845,2352,-529,156,-203,388,-543
1603,329,1349,-4792,2394,-545,132,-209,356,-570
1604,311,1300,-4703,2404,-535,101,-209,356,-570
1605,286,1257,-4601,2352,-525,78,-209,356,-570
1606,297,1167,-4511,2270,-515,56,-209,356,-570
1607,242,1082,-4445,2164,-465,42,-209,356,-570
1608,218,1018,-4454,2054,-401,46,-209,356,-570
1609,200,963,-4488,1899,-357,52,-209,356,-570
1610,221,927,-4513,1692,-310,67,-209,356,-570
1611,195,893,-4483,1491,-307,90,-209,356,-570
1612,187,863,-4455,1313,-280,106,-209,356,-570
1613,214,913,-4414,1160,-265,133,-209,356,-570
1614,201,971,-4367,999,-242,129,-209,356,-570
1615,203,973,-4301,871,-209,123,-209,356,-570
1616,225,925,-4258,734,-192,133,-209,356,-570
1617,219,927,-4217,616,-199,144,-209,356,-570
1618,207,978,-4111,569,-189,158,-209,356,-570
1619,215,1032,-4072,579,-159,172,-205,314,-584
1620,198,1080,-4003,621,-102,163,-205,314,-584
1621,224,1143,-3981,764,-77,175,-205,314,-584
1622,268,1120,-3960,934,-84,163,-205,314,-584
1623,267,1178,-4005,1080,-102,165,-205,314,-584
1624,280,1222,-4070,1189,-97,140,-205,314,-584
1625,317,1153,-4143,1273,-128,115,-205,314,-584
1626,255,1191,-4210,1367,-139,88,-205,314,-584
1627,287,1131,-4227,1444,-177,63,-205,314,-584
1628,257,1065,-4262,1476,-226,25,-205,314,-584
1629,261,1034,-4285,1446,-258,3,-205,314,-584
1630,194,1048,-4303,1386,-234,-16,-205,314,-584
1631,200,1012,-4250,1333,-197,-40,-205,314,-584
1632,154,979,-4182,1261,-154,-53,-205,314,-584
1633,147,910,-4187,1171,-87,-74,-205,314,-584
1634,160,859,-4201,1057,-30,-78,-205,314,-584
1635,132,887,-4229,944,49,-91,-214,300,-591
1636,168,817,-4227,848,105,-88,-214,300,-591
1637,192,788,-4307,710,104,-65,-214,300,-591
1638,161,800,-4347,519,111,-62,-214,300,-591
1639,182,797,-4374,358,144,-64,-214,300,-591
1640,173,869,-4350,244,170,-61,-214,300,-591
1641,197,881,-4323,150,197,-62,-214,300,-591
1642,204,868,-4315,76,203,-59,-214,300,-591
1643,201,900,-4307,9,186,-68,-214,300,-591
1644,205,939,-4254,-7,184,-75,-214,300,-591
1645,218,933,-4238,14,178,-79,-214,300,-591
1646,200,964,-4194,41,171,-83,-214,300,-591
1647,213,936,-4125,62,163,-85,-214,300,-591
1648,247,1003,-4091,123,151,-98,-214,300,-591
1649,262,1032,-4127,237,120,-116,-214,300,-591
1650,297,1066,-4165,376,43,-153,-214,300,-591
1651,304,1058,-4255,484,-62,-189,-216,297,-604
1652,260,963,-4312,551,-121,-195,-216,297,-604
1653,263,965,-4356,597,-145,-194,-216,297,-604
1654,206,946,-4395,634,-156,-198,-216,297,-604
1655,229,914,-4340,693,-165,-191,-216,297,-604
1656,226,913,-4317,770,-180,-194,-216,297,-604
1657,202,881,-4322,815,-188,-187,-216,297,-604
1658,163,827,-4326,832,-158,-182,-216,297,-604
1659,147,797,-4393,835,-129,-186,-216,297,-604
1660,148,705,-4449,808,-115,-189,-216,297,-604
1661,145,645,-4453,721,-112,-177,-216,297,-604
1662,179,591,-4486,590,-113,-146,-216,297,-604
1663,161,656,-4456,455,-103,-108,-216,297,-604
1664,134,643,-4482,313,-90,-81,-216,297,-604
1665,169,681,-4481,198,-54,-61,-216,297,-604
1666,172,713,-4450,86,-10,-41,-216,297,-604
1667,159,705,-4452,-20,39,-26,-212,272,-609
1668,188,711,-4394,-138,93,-28,-212,272,-609
1669,167,764,-4407,-225,142,-24,-212,272,-609
1670,223,766,-4390,-284,168,-31,-212,272,-609
1671,210,751,-4400,-330,174,-54,-212,272,-609
1672,222,705,-4415,-414,138,-55,-212,272,-609
1673,208,731,-4457,-500,125,-52,-212,272,-609
1674,180,781,-4508,-566,135,-56,-212,272,-609
1675,208,818,-4458,-608,157,-56,-212,272,-609
1676,230,825,-4476,-632,168,-65,-212,272,-609
1677,227,812,-4447,-645,176,-56,-212,272,-609
1678,192,800,-4379,-631,175,-58,-212,272,-609
1679,172,817,-4327,-604,199,-50,-212,272,-609
1680,200,829,-4362,-581,208,-38,-212,272,-609
1681,192,807,-4391,-538,190,-39,-212,272,-609
1682,191,791,-4414,-492,145,-38,-212,272,-609
1683,227,805,-4362,-457,94,-33,-215,284,-600
1684,232,817,-4281,-438,50,-36,-215,284,-600
1685,203,836,-4235,-417,50,-24,-215,284,-600
1686,213,851,-4281,-410,64,-19,-215,284,-600
1687,217,903,-4248,-394,84,-20,-215,284,-600
1688,226,914,-4198,-360,105,-19,-215,284,-600
1689,216,886,-4189,-312,132,-20,-215,284,-600
1690,213,884,-4169,-254,143,-20,-215,284,-600
1691,228,859,-4212,-210,154,-12,-215,284,-600
1692,201,860,-4205,-150,162,-4,-215,284,-600
1693,208,869,-4235,-105,151,-12,-215,284,-600
1694,221,834,-4332,-76,120,-13,-215,284,-600
1695,255,830,-4326,-87,85,-27,-215,284,-600
1696,299,794,-4261,-129,4,-20,-215,284,-600
1697,237,813,-4242,-183,-8,-17,-215,284,-600
1698,229,875,-4205,-182,-1,-12,-215,284,-600
1699,218,868,-4206,-166,32,-14,-215,284,-600
1700,227,833,-4216,-160,38,-4,-215,284,-600
1701,212,782,-4265,-195,32,7,-215,284,-600
1702,205,830,-4287,-229,30,15,-215,284,-600
1703,232,856,-4244,-247,6,4,-215,284,-600
1704,223,908,-4248,-237,-4,-3,-215,284,-600
1705,248,899,-4232,-204,-16,-12,-215,284,-600
1706,251,852,-4236,-176,-27,-24,-215,284,-600
1707,227,865,-4249,-192,-2,-10,-215,284,-600
1708,249,859,-4253,-210,22,-9,-215,284,-600
1709,216,857,-4296,-229,34,-3,-215,284,-600
1710,265,883,-4284,-229,26,-2,-215,284,-600
1711,220,868,-4234,-208,16,2,-215,284,-600
1712,238,867,-4285,-186,-1,-2,-215,284,-600
1713,240,882,-4298,-169,4,-1,-215,284,-600
1714,224,860,-4259,-179,3,0,-215,284,-600
1715,224,846,-4227,-189,12,1,-215,284,-600
1716,265,907,-4188,-179,32,8,-207,287,-602
1717,268,925,-4155,-138,25,-2,-207,287,-602
1718,249,902,-4232,-138,4,-8,-207,287,-602
1719,252,883,-4251,-148,1,-15,-207,287,-602
1720,243,896,-4313,-180,-2,-15,-207,287,-602
1721,251,897,-4264,-192,-3,-21,-207,287,-602
1722,227,919,-4277,-205,8,-26,-207,287,-602
1723,253,930,-4221,-189,10,-34,-207,287,-602
1724,244,901,-4226,-172,18,-29,-207,287,-602
1725,212,866,-4168,-144,43,-26,-207,287,-602
1726,198,880,-4212,-128,60,-22,-207,287,-602
1727,227,888,-4194,-146,58,-19,-207,287,-602
1728,249,888,-4150,-144,48,-27,-207,287,-602
1729,252,952,-4126,-120,49,-44,-207,287,-602
1730,241,927,-4169,-76,46,-49,-207,287,-602
1731,234,942,-4289,-65,67,-54,-207,287,-602
1732,240,915,-4310,-70,73,-65,-214,295,-597
1733,269,910,-4340,-95,74,-63,-214,295,-597
1734,240,909,-4340,-102,73,-60,-214,295,-597
1735,206,858,-4315,-100,65,-44,-214,295,-597
1736,195,872,-4285,-89,65,-44,-214,295,-597
1737,212,868,-4237,-88,79,-28,-214,295,-597
1738,187,862,-4213,-102,105,-17,-214,295,-597
1739,234,902,-4203,-99,135,5,-214,295,-597
1740,226,914,-4258,-105,167,9,-214,295,-597
1741,215,916,-4262,-97,169,4,-214,295,-597
1742,275,889,-4311,-80,147,-13,-214,295,-597
1743,293,897,-4263,-129,82,-22,-214,295,-597
1744,254,929,-4232,-167,53,-25,-214,295,-597
1745,249,942,-4274,-172,58,-30,-214,295,-597
1746,227,965,-4303,-185,89,-30,-214,295,-597
1747,251,924,-4300,-185,107,-35,-214,295,-597
1748,217,895,-4267,-198,115,-35,-214,295,-597
1749,227,894,-4230,-180,106,-25,-214,296,-599
1750,209,887,-4238,-129,109,-20,-214,296,-599
1751,223,877,-4217,-91,119,-7,-214,296,-599
1752,198,884,-4201,-55,145,1,-214,296,-599
1753,209,904,-4174,-54,167,7,-214,296,-599
1754,235,916,-4191,-27,185,10,-214,296,-599
1755,243,919,-4231,17,194,1,-214,296,-599
1756,274,926,-4285,43,166,-9,-214,296,-599
1757,323,928,-4271,27,112,-16,-214,296,-599
1758,331,917,-4252,-16,20,-34,-214,296,-599
1759,297,950,-4222,-12,2,-43,-214,296,-599
1760,279,914,-4186,3,6,-53,-214,296,-599
1761,244,871,-4280,21,30,-42,-214,296,-599
1762,223,814,-4257,2,49,-39,-214,296,-599
1763,236,825,-4316,-14,49,-26,-214,296,-599
1764,246,844,-4234,3,57,-10,-214,296,-599
1765,240,837,-4269,34,66,8,-204,289,-601
1766,253,865,-4254,59,83,6,-204,289,-601
1767,254,869,-4258,62,105,10,-204,289,-601
1768,273,883,-4288,58,103,4,-204,289,-601
1769,292,859,-4324,47,86,-3,-204,289,-601
1770,326,802,-4378,6,17,-2,-204,289,-601
1771,321,866,-4416,-78,-34,-6,-204,289,-601
1772,320,915,-4375,-120,-79,-18,-204,289,-601
1773,294,978,-4330,-129,-99,-31,-204,289,-601
1774,264,948,-4281,-116,-77,-30,-204,289,-601
1775,251,907,-4329,-95,-56,-37,-204,289,-601
1776,214,872,-4340,-102,-30,-34,-204,289,-601
1777,229,868,-4284,-112,-14,-29,-204,289,-601
1778,247,861,-4273,-118,2,-24,-204,289,-601
1779,226,879,-4253,-93,7,-20,-204,289,-601
1780,263,873,-4242,-70,17,-22,-204,289,-601
1781,235,877,-4237,-61,28,-16,-204,289,-601
1782,237,854,-4207,-56,48,-17,-211,294,-596
1783,250,873,-4183,-36,72,-22,-211,294,-596
1784,264,845,-4244,-34,72,-25,-211,294,-596
1785,289,855,-4194,-45,68,-23,-211,294,-596
1786,266,850,-4220,-52,64,-12,-211,294,-596
1787,254,847,-4265,-46,72,-14,-211,294,-596
1788,248,855,-4256,-42,66,-4,-211,294,-596
1789,269,862,-4277,-44,71,-2,-211,294,-596
1790,275,872,-4273,-48,50,3,-211,294,-596
1791,276,909,-4319,-51,48,-8,-211,294,-596
1792,279,899,-4287,-38,23,-11,-211,294,-596
1793,279,891,-4250,-25,11,-20,-211,294,-596
1794,298,862,-4251,-32,-15,-28,-211,294,-596
1795,284,819,-4224,-32,-43,-17,-211,294,-596
1796,268,880,-4246,-44,-30,-12,-211,294,-596
1797,278,874,-4272,-53,-25,-8,-211,294,-596
1798,266,924,-4207,-60,-13,-5,-212,297,-604
1799,253,913,-4218,-47,6,-5,-212,297,-604
1800,271,901,-4206,-41,14,-2,-212,297,-604
1801,285,917,-4228,-32,30,-5,-212,297,-604
1802,239,879,-4273,-26,41,-9,-212,297,-604
1803,253,872,-4284,-25,33,-4,-212,297,-604
1804,289,894,-4269,-18,8,-17,-212,297,-604
1805,296,927,-4303,-22,-6,-8,-212,297,-604
1806,307,895,-4284,-45,-27,-14,-212,297,-604
1807,290,920,-4343,-72,-29,-20,-212,297,-604
1808,280,919,-4274,-87,-23,-25,-212,297,-604
1809,244,887,-4232,-86,-12,-20,-212,297,-604
1810,255,900,-4259,-86,7,-18,-212,297,-604
1811,262,902,-4196,-67,18,-17,-212,297,-604
1812,251,899,-4212,-55,44,-12,-212,297,-604
1813,267,895,-4194,-39,63,-9,-212,297,-604
1814,268,902,-4297,-19,81,2,-212,297,-604
1815,264,872,-4303,-10,73,-9,-205,289,-603
1816,268,899,-4315,-22,50,-16,-205,289,-603
1817,311,871,-4318,-58,20,-22,-205,289,-603
1818,302,903,-4324,-88,6,-19,-205,289,-603
1819,264,905,-4281,-86,13,-26,-205,289,-603
1820,264,886,-4268,-85,19,-22,-205,289,-603
1821,266,879,-4251,-85,36,-18,-205,289,-603
1822,223,850,-4313,-86,43,-11,-205,289,-603
1823,239,840,-4297,-83,52,-4,-205,289,-603
1824,241,853,-4258,-75,58,7,-205,289,-603
1825,233,863,-4233,-44,49,-1,-205,289,-603
1826,279,864,-4251,-10,25,-14,-205,289,-603
1827,274,875,-4245,11,-3,-4,-205,289,-603
1828,281,854,-4302,21,-4,-13,-205,289,-603
1829,254,872,-4348,11,-10,-13,-205,289,-603
1830,290,911,-4286,-9,-5,-16,-205,289,-603
1831,288,905,-4285,-37,1,-10,-209,290,-596
1832,274,898,-4243,-40,6,-16,-209,290,-596
1833,285,887,-4259,-26,20,-23,-209,290,-596
1834,282,868,-4283,-22,25,-24,-209,290,-596
1835,275,856,-4284,-23,26,-14,-209,290,-596
1836,254,840,-4299,-36,19,-22,-209,290,-596
1837,278,851,-4294,-48,14,-17,-209,290,-596
1838,286,855,-4282,-61,8,-15,-209,290,-596
1839,237,844,-4239,-66,12,-2,-209,290,-596
1840,249,845,-4232,-67,26,-1,-209,290,-596
1841,252,851,-4243,-70,42,2,-209,290,-596
1842,260,837,-4213,-59,67,4,-209,290,-596
1843,244,863,-4194,-42,78,8,-209,290,-596
1844,269,876,-4199,-38,86,7,-209,290,-596
1845,259,834,-4212,-35,65,1,-209,290,-596
1846,282,805,-4232,-49,48,5,-209,290,-596
1847,277,846,-4248,-58,26,9,-209,290,-596
1848,278,818,-4258,-45,29,13,-212,296,-604
1849,261,862,-4244,-42,38,18,-212,296,-604
1850,296,859,-4298,-38,63,14,-212,296,-604
1851,301,888,-4297,-61,51,5,-212,296,-604
1852,293,920,-4328,-68,40,-2,-212,296,-604
1853,304,910,-4247,-66,35,-12,-212,296,-604
1854,298,885,-4267,-40,13,-21,-212,296,-604
1855,268,892,-4238,-12,8,-27,-212,296,-604
1856,241,852,-4183,6,24,-26,-212,296,-604
1857,272,848,-4222,15,37,-17,-212,296,-604
1858,259,814,-4223,15,61,-7,-212,296,-604
1859,297,860,-4217,11,84,-1,-212,296,-604
1860,256,856,-4244,19,96,3,-212,296,-604
1861,289,854,-4211,25,90,12,-212,296,-604
1862,280,856,-4282,32,92,9,-212,296,-604
1863,278,835,-4226,29,95,20,-212,296,-604
1864,260,870,-4282,10,109,18,-202,284,-601
1865,276,838,-4253,-11,122,22,-202,284,-601
1866,284,848,-4299,-31,141,19,-202,284,-601
1867,292,868,-4293,-46,144,15,-202,284,-601
1868,286,881,-4307,-49,136,15,-202,284,-601
1869,297,874,-4328,-39,133,15,-202,284,-601
1870,301,863,-4319,-46,125,9,-202,284,-601
1871,278,872,-4321,-44,117,13,-202,284,-601
1872,284,877,-4313,-35,106,13,-202,284,-601
1873,299,880,-4305,-33,105,10,-202,284,-601
1874,291,862,-4287,-43,134,14,-202,284,-601
1875,284,833,-4251,-48,135,22,-202,284,-601
1876,287,868,-4259,-65,154,17,-202,284,-601
1877,285,867,-4218,-49,161,6,-202,284,-601
1878,292,904,-4231,-7,162,10,-202,284,-601
1879,315,906,-4234,25,169,5,-202,284,-601
1880,306,849,-4267,40,154,-3,-202,284,-601
1881,301,865,-4266,34,149,-3,-202,287,-596
1882,315,839,-4259,11,142,-9,-202,287,-596
1883,311,864,-4244,2,154,-7,-202,287,-596
1884,314,880,-4184,10,148,-6,-202,287,-596
1885,313,890,-4170,24,150,-7,-202,287,-596
1886,319,860,-4170,31,125,-4,-202,287,-596
1887,290,857,-4243,27,125,-10,-202,287,-596
1888,313,838,-4229,16,113,-12,-202,287,-596
1889,313,822,-4241,4,118,-17,-202,287,-596
1890,298,807,-4241,5,120,1,-202,287,-596
1891,280,827,-4253,5,126,-4,-202,287,-596
1892,294,834,-4286,4,131,2,-202,287,-596
1893,280,837,-4239,15,127,4,-202,287,-596
1894,308,836,-4227,42,126,7,-202,287,-596
1895,291,856,-4241,68,114,3,-202,287,-596
1896,324,865,-4206,79,89,-4,-202,287,-596
1897,305,842,-4221,96,72,-5,-202,291,-610
1898,323,877,-4250,131,75,-17,-202,291,-610
1899,312,839,-4259,160,86,-22,-202,291,-610
1900,310,849,-4281,185,92,-37,-202,291,-610
1901,319,808,-4302,184,79,-19,-202,291,-610
1902,309,774,-4349,167,54,-18,-202,291,-610
1903,326,807,-4343,145,26,0,-202,291,-610
1904,298,778,-4353,128,6,-2,-202,291,-610
1905,328,798,-4305,107,-5,3,-202,291,-610
1906,280,771,-4260,106,1,9,-202,291,-610
1907,300,807,-4234,95,21,19,-202,291,-610
1908,292,844,-4256,75,24,15,-202,291,-610
1909,320,845,-4222,59,35,15,-202,291,-610
1910,322,847,-4264,63,33,9,-202,291,-610
1911,299,861,-4249,94,52,5,-202,291,-610
1912,323,866,-4260,105,66,-3,-202,291,-610
1913,310,840,-4281,93,73,-8,-202,291,-610
1914,309,809,-4281,84,70,2,-195,278,-607
1915,316,800,-4266,63,67,-1,-195,278,-607
1916,325,775,-4294,51,57,7,-195,278,-607
1917,312,797,-4308,38,51,15,-195,278,-607
1918,314,792,-4261,0,45,12,-195,278,-607
1919,321,801,-4298,-28,52,13,-195,278,-607
1920,326,847,-4211,-46,62,27,-195,278,-607
1921,354,851,-4223,-50,78,15,-195,278,-607
1922,315,846,-4236,-41,96,15,-195,278,-607
1923,345,839,-4184,-20,122,9,-195,278,-607
1924,348,875,-4184,-10,130,8,-195,278,-607
1925,333,862,-4202,-1,142,-2,-195,278,-607
1926,324,853,-4228,13,137,-17,-195,278,-607
1927,359,854,-4277,43,113,-22,-195,278,-607
1928,354,837,-4328,60,92,-24,-195,278,-607
1929,353,797,-4296,41,42,-28,-195,278,-607
1930,334,813,-4338,26,32,-28,-198,278,-605
1931,333,814,-4368,7,20,-21,-198,278,-605
1932,323,803,-4325,-7,18,-25,-198,278,-605
1933,310,823,-4312,3,29,-21,-198,278,-605
1934,309,790,-4230,1,26,-14,-198,278,-605
1935,339,778,-4201,1,30,-2,-198,278,-605
1936,326,784,-4204,1,43,2,-198,278,-605
1937,323,801,-4202,9,60,2,-198,278,-605
1938,347,767,-4206,15,64,8,-198,278,-605
1939,363,798,-4264,13,59,0,-198,278,-605
1940,356,832,-4283,14,46,3,-198,278,-605
1941,354,833,-4287,-2,36,-7,-198,278,-605
1942,343,840,-4324,8,42,-23,-198,278,-605
1943,350,804,-4328,11,60,-25,-198,278,-605
1944,341,812,-4307,7,61,-25,-198,278,-605
1945,358,799,-4282,-6,69,-27,-198,278,-605
1946,352,798,-4270,-5,80,-25,-198,278,-605
1947,341,803,-4271,9,90,-25,-203,281,-612
1948,351,794,-4276,30,95,-17,-203,281,-612
1949,342,790,-4236,35,85,-12,-203,281,-612
1950,332,792,-4244,4,72,-16,-203,281,-612
1951,343,782,-4250,-37,72,-18,-203,281,-612
1952,353,808,-4256,-49,67,-18,-203,281,-612
1953,355,818,-4250,-57,80,-21,-203,281,-612
1954,358,825,-4248,-51,87,-26,-203,281,-612
1955,387,783,-4265,-39,99,-19,-203,281,-612
1956,360,804,-4258,-41,110,-24,-203,281,-612
1957,334,796,-4266,-28,113,-26,-203,281,-612
1958,355,775,-4267,-7,129,-19,-203,281,-612
1959,379,779,-4297,6,103,-17,-203,281,-612
1960,344,759,-4321,-4,94,-14,-203,281,-612
1961,343,728,-4313,-33,72,-8,-203,281,-612
1962,327,758,-4338,-53,76,0,-203,281,-612
1963,336,744,-4334,-79,76,4,-203,281,-612
1964,336,751,-4264,-85,83,13,-203,281,-612
1965,349,780,-4256,-81,90,13,-203,281,-612
1966,345,774,-4258,-76,93,16,-203,281,-612
1967,359,761,-4242,-62,114,15,-203,281,-612
1968,346,779,-4219,-48,121,17,-203,281,-612
1969,349,786,-4243,-34,125,20,-203,281,-612
1970,394,789,-4269,-31,101,13,-203,281,-612
1971,361,800,-4264,-11,87,9,-203,281,-612
1972,359,790,-4346,10,67,5,-203,281,-612
1973,383,807,-4357,13,54,-4,-203,281,-612
1974,357,803,-4363,-2,48,-3,-203,281,-612
1975,358,803,-4334,-13,39,0,-203,281,-612
1976,320,773,-4347,-11,49,0,-203,281,-612
1977,336,780,-4221,-12,47,10,-203,281,-612
1978,338,779,-4229,-6,61,4,-203,281,-612
1979,358,734,-4228,7,84,12,-203,281,-612
1980,336,769,-4250,14,94,23,-196,277,-609
1981,369,785,-4197,-4,105,11,-196,277,-609
1982,371,785,-4231,-8,121,11,-196,277,-609
1983,373,850,-4232,1,140,7,-196,277,-609
1984,371,829,-4216,13,159,-2,-196,277,-609
1985,366,822,-4265,26,173,-4,-196,277,-609
1986,429,816,-4275,27,185,-10,-196,277,-609
1987,377,813,-4257,16,170,-16,-196,277,-609
1988,373,780,-4285,9,154,-16,-196,277,-609
1989,385,772,-4294,5,153,-8,-196,277,-609
1990,387,788,-4330,-19,149,-1,-196,277,-609
1991,380,754,-4319,-27,147,-2,-196,277,-609
1992,416,755,-4352,-26,146,2,-196,277,-609
1993,403,782,-4347,-27,141,2,-196,277,-609
1994,382,784,-4318,-28,142,0,-196,277,-609
1995,393,795,-4327,-5,141,1,-196,277,-609
1996,379,765,-4315,2,150,-4,-196,277,-609
1997,398,751,-4329,25,151,-8,-197,279,-615
1998,390,776,-4335,35,166,1,-197,279,-615
1999,419,785,-4323,64,177,-6,-197,279,-615
2000,422,791,-4341,92,183,-10,-197,279,-615
2001,429,757,-4372,123,204,-16,-197,279,-615
2002,433,713,-4359,131,205,-21,-197,279,-615
2003,432,701,-4366,136,188,-19,-197,279,-615
2004,434,692,-4364,151,160,-14,-197,279,-615
2005,432,682,-4409,178,117,-11,-197,279,-615
2006,456,658,-4429,202,78,-9,-197,279,-615
2007,447,663,-4480,222,58,4,-197,279,-615
2008,397,660,-4419,225,51,17,-197,279,-615
2009,404,628,-4429,235,49,25,-197,279,-615
2010,406,642,-4396,240,51,31,-197,279,-615
2011,398,675,-4380,237,59,30,-197,279,-615
2012,409,674,-4319,237,68,41,-197,279,-615
2013,409,689,-4336,249,73,29,-186,267,-617
2014,397,702,-4298,262,97,35,-186,267,-617
2015,411,684,-4284,270,98,33,-186,267,-617
2016,426,671,-4334,273,86,27,-186,267,-617
2017,408,693,-4348,278,65,26,-186,267,-617
2018,395,692,-4342,282,50,8,-186,267,-617
2019,387,686,-4340,287,47,4,-186,267,-617
2020,384,638,-4317,296,54,-9,-186,267,-617
2021,361,672,-4319,300,74,-4,-186,267,-617
2022,368,669,-4286,297,97,-8,-186,267,-617
2023,357,663,-4280,306,120,-20,-186,267,-617
2024,372,675,-4297,339,167,-27,-186,267,-617
2025,348,635,-4316,357,201,-26,-186,267,-617
2026,382,605,-4234,353,217,-25,-186,267,-617
2027,389,590,-4265,326,198,-31,-186,267,-617
2028,395,580,-4287,330,198,-21,-186,267,-617
2029,362,613,-4247,352,200,-19,-187,264,-618
2030,396,598,-4315,375,197,-12,-187,264,-618
2031,379,577,-4318,384,236,-11,-187,264,-618
2032,401,522,-4254,347,243,5,-187,264,-618
2033,371,558,-4297,327,269,13,-187,264,-618
2034,399,582,-4313,320,305,22,-187,264,-618
2035,445,588,-4260,305,279,30,-187,264,-618
2036,477,544,-4203,234,208,41,-187,264,-618
2037,469,572,-4180,162,141,55,-187,264,-618
2038,450,612,-4194,111,109,63,-187,264,-618
2039,403,633,-4235,100,104,68,-187,264,-618
2040,437,637,-4240,70,123,72,-187,264,-618
2041,401,642,-4251,33,149,78,-187,264,-618
2042,419,589,-4256,5,168,80,-187,264,-618
2043,441,645,-4255,-13,180,86,-187,264,-618
2044,420,655,-4217,-10,190,84,-187,264,-618
2045,426,664,-4254,0,198,84,-187,264,-618
2046,454,689,-4269,17,196,85,-188,264,-624
2047,457,666,-4301,10,194,82,-188,264,-624
2048,478,666,-4305,-31,154,70,-188,264,-624
2049,477,687,-4350,-95,86,68,-188,264,-624
2050,471,715,-4302,-119,60,54,-188,264,-624
2051,479,751,-4275,-103,43,50,-188,264,-624
2052,466,739,-4284,-92,44,48,-188,264,-624
2053,436,720,-4241,-85,52,40,-188,264,-624
2054,433,704,-4217,-101,61,45,-188,264,-624
2055,446,727,-4269,-96,78,34,-188,264,-624
2056,450,737,-4203,-80,97,32,-188,264,-624
2057,416,750,-4189,-55,104,28,-188,264,-624
2058,433,744,-4178,-27,105,15,-188,264,-624
2059,446,722,-4249,-20,77,2,-188,264,-624
2060,462,726,-4214,-37,60,4,-188,264,-624
2061,449,721,-4205,-54,68,2,-188,264,-624
2062,474,721,-4206,-65,70,0,-176,255,-627
2063,453,692,-4222,-87,75,5,-176,255,-627
2064,463,731,-4161,-84,85,6,-176,255,-627
2065,464,717,-4138,-69,80,7,-176,255,-627
2066,452,739,-4128,-63,91,9,-176,255,-627
2067,469,708,-4142,-47,112,11,-176,255,-627
2068,447,743,-4155,-43,112,13,-176,255,-627
2069,474,723,-4209,-42,89,11,-176,255,-627
2070,477,712,-4170,-56,53,12,-176,255,-627
2071,473,734,-4207,-71,29,9,-176,255,-627
2072,476,742,-4210,-64,25,7,-176,255,-627
2073,465,761,-4246,-44,34,1,-176,255,-627
2074,481,744,-4220,-34,58,-2,-176,255,-627
2075,497,740,-4264,-24,65,-7,-176,255,-627
2076,472,748,-4229,-21,76,-18,-176,255,-627
2077,464,696,-4254,-15,76,-21,-176,255,-627
2078,488,693,-4292,5,64,-26,-176,255,-627
2079,458,703,-4253,-4,24,-28,-179,258,-618
2080,480,685,-4313,-25,-10,-34,-179,258,-618
2081,490,690,-4330,-35,-39,-39,-179,258,-618
2082,460,685,-4370,-34,-38,-47,-179,258,-618
2083,511,682,-4344,-28,-41,-44,-179,258,-618
2084,471,644,-4349,-27,-46,-42,-179,258,-618
2085,471,662,-4322,-29,-36,-45,-179,258,-618
2086,437,665,-4326,-26,-31,-42,-179,258,-618
2087,451,681,-4281,-2,-20,-37,-179,258,-618
2088,438,648,-4264,-6,-8,-32,-179,258,-618
2089,499,670,-4241,-5,-14,-42,-179,258,-618
2090,471,680,-4255,-3,-1,-41,-179,258,-618
2091,477,681,-4266,3,16,-38,-179,258,-618
2092,473,696,-4264,4,36,-42,-179,258,-618
2093,471,671,-4328,-15,52,-44,-179,258,-618
2094,488,626,-4363,-46,56,-39,-179,258,-618
2095,465,646,-4308,-63,58,-35,-184,263,-627
2096,471,656,-4292,-58,62,-32,-184,263,-627
2097,450,654,-4279,-41,68,-33,-184,263,-627
2098,452,649,-4313,-52,85,-33,-184,263,-627
2099,483,666,-4244,-51,76,-36,-184,263,-627
2100,507,634,-4278,-53,60,-36,-184,263,-627
2101,491,634,-4277,-69,26,-39,-184,263,-627
2102,505,652,-4369,-72,7,-39,-184,263,-627
2103,527,624,-4370,-73,-4,-35,-184,263,-627
2104,501,649,-4308,-72,-1,-31,-184,263,-627
2105,492,680,-4314,-90,-3,-27,-184,263,-627
2106,505,666,-4260,-76,2,-36,-184,263,-627
2107,461,681,-4302,-56,8,-35,-184,263,-627
2108,464,653,-4292,-28,31,-32,-184,263,-627
2109,500,640,-4355,-24,17,-29,-184,263,-627
2110,473,585,-4385,-33,-6,-37,-184,263,-627
2111,454,607,-4371,-42,-31,-30,-184,263,-627
2112,459,618,-4389,-51,-39,-34,-173,254,-628
2113,498,627,-4299,-67,-50,-27,-173,254,-628
2114,467,656,-4350,-77,-33,-29,-173,254,-628
2115,433,631,-4324,-82,-35,-26,-173,254,-628
2116,453,661,-4315,-85,-26,-21,-173,254,-628
2117,443,638,-4250,-80,-11,-26,-173,254,-628
2118,448,654,-4249,-75,10,-24,-173,254,-628
2119,450,672,-4283,-71,16,-25,-173,254,-628
2120,469,665,-4243,-72,7,-32,-173,254,-628
2121,473,659,-4233,-66,3,-31,-173,254,-628
2122,491,657,-4256,-72,17,-28,-173,254,-628
2123,478,653,-4305,-66,30,-28,-173,254,-628
2124,471,671,-4309,-62,47,-33,-173,254,-628
2125,470,645,-4246,-65,50,-33,-173,254,-628
2126,493,641,-4264,-64,48,-30,-173,254,-628
2127,503,627,-4320,-66,35,-28,-173,254,-628
2128,509,621,-4300,-50,19,-33,-179,255,-622
2129,508,587,-4311,-46,-7,-26,-179,255,-622
2130,479,645,-4320,-67,-13,-30,-179,255,-622
2131,502,617,-4380,-71,-16,-25,-179,255,-622
2132,468,627,-4335,-84,-11,-23,-179,255,-622
2133,508,652,-4370,-82,-19,-30,-179,255,-622
2134,493,681,-4313,-67,-24,-31,-179,255,-622
2135,500,663,-4358,-60,-41,-34,-179,255,-622
2136,467,636,-4397,-50,-37,-36,-179,255,-622
2137,467,645,-4377,-59,-34,-47,-179,255,-622
2138,462,619,-4384,-71,-14,-40,-179,255,-622
2139,478,626,-4398,-70,-7,-46,-179,255,-622
2140,477,625,-4372,-58,3,-41,-179,255,-622
2141,474,637,-4353,-61,1,-39,-179,255,-622
2142,475,648,-4359,-63,9,-48,-179,255,-622
2143,469,610,-4351,-78,6,-38,-179,255,-622
2144,490,633,-4362,-89,-1,-48,-179,255,-622
2145,492,641,-4358,-87,-5,-51,-184,262,-628
2146,528,606,-4361,-79,-18,-48,-184,262,-628
2147,493,621,-4359,-94,-13,-46,-184,262,-628
2148,495,597,-4375,-101,-29,-53,-184,262,-628
2149,505,606,-4390,-107,-26,-47,-184,262,-628
2150,481,607,-4365,-124,-18,-39,-184,262,-628
2151,519,616,-4351,-144,-27,-42,-184,262,-628
2152,493,615,-4322,-144,-28,-34,-184,262,-628
2153,508,640,-4334,-167,-25,-36,-184,262,-628
2154,485,647,-4308,-166,-17,-38,-184,262,-628
2155,462,656,-4263,-147,-10,-40,-184,262,-628
2156,459,655,-4302,-143,-10,-39,-184,262,-628
2157,472,630,-4297,-155,-4,-36,-184,262,-628
2158,492,666,-4251,-155,13,-42,-184,262,-628
2159,464,643,-4244,-132,18,-45,-184,262,-628
2160,472,628,-4240,-115,17,-45,-184,262,-628
2161,479,626,-4269,-111,-1,-39,-178,253,-624
2162,465,633,-4301,-123,-10,-46,-178,253,-624
2163,484,616,-4316,-133,-21,-48,-178,253,-624
2164,466,661,-4307,-153,-20,-51,-178,253,-624
2165,453,633,-4275,-144,5,-48,-178,253,-624
2166,457,624,-4255,-142,15,-47,-178,253,-624
2167,451,625,-4273,-148,19,-45,-178,253,-624
2168,443,625,-4298,-163,8,-40,-178,253,-624
2169,471,625,-4236,-163,0,-44,-178,253,-624
2170,454,661,-4179,-170,-23,-42,-178,253,-624
2171,455,649,-4165,-154,-13,-47,-178,253,-624
2172,457,661,-4153,-134,13,-46,-178,253,-624
2173,433,671,-4225,-117,26,-51,-178,253,-624
2174,465,650,-4176,-125,41,-53,-178,253,-624
2175,466,651,-4174,-123,37,-43,-178,253,-624
2176,453,643,-4173,-119,44,-48,-178,253,-624
2177,424,635,-4191,-101,39,-48,-180,258,-624
2178,437,625,-4224,-99,40,-41,-180,258,-624
2179,429,596,-4185,-101,45,-40,-180,258,-624
2180,449,623,-4203,-115,21,-38,-180,258,-624
2181,448,627,-4231,-121,-2,-34,-180,258,-624
2182,426,639,-4184,-110,-7,-30,-180,258,-624
2183,453,659,-4171,-108,9,-27,-180,258,-624
2184,422,687,-4169,-125,22,-28,-180,258,-624
2185,433,663,-4174,-112,31,-26,-180,258,-624
2186,435,669,-4171,-95,42,-28,-180,258,-624
2187,445,691,-4194,-82,45,-27,-180,258,-624
2188,421,655,-4197,-72,33,-36,-180,258,-624
2189,445,696,-4200,-52,35,-42,-180,258,-624
2190,433,680,-4160,-42,38,-44,-180,258,-624
2191,448,690,-4244,-31,47,-47,-180,258,-624
2192,462,680,-4271,-19,59,-52,-180,258,-624
2193,451,646,-4260,-10,70,-52,-180,258,-624
2194,434,659,-4299,-23,72,-37,-186,262,-621
2195,464,625,-4308,-33,76,-33,-186,262,-621
2196,468,637,-4331,-24,61,-35,-186,262,-621
2197,461,662,-4348,-42,42,-33,-186,262,-621
2198,476,653,-4316,-69,12,-19,-186,262,-621
2199,471,686,-4346,-85,1,-30,-186,262,-621
2200,489,688,-4348,-95,7,-25,-186,262,-621
2201,483,696,-4365,-92,15,-30,-186,262,-621
2202,488,701,-4328,-93,6,-37,-186,262,-621
2203,480,705,-4322,-76,5,-44,-186,262,-621
2204,498,696,-4302,-60,13,-43,-186,262,-621
2205,493,686,-4299,-46,20,-45,-186,262,-621
2206,468,674,-4304,-30,30,-43,-186,262,-621
2207,483,659,-4363,-30,47,-44,-186,262,-621
2208,489,710,-4378,-35,50,-41,-186,262,-621
2209,483,665,-4410,-31,47,-46,-186,262,-621
2210,490,647,-4384,-27,48,-46,-176,255,-624
2211,480,630,-4405,-34,41,-48,-176,255,-624
2212,454,636,-4416,-46,41,-48,-176,255,-624
2213,478,619,-4396,-54,50,-45,-176,255,-624
2214,477,603,-4419,-68,68,-40,-176,255,-624
2215,468,642,-4373,-69,52,-37,-176,255,-624
2216,479,632,-4434,-60,50,-37,-176,255,-624
2217,518,650,-4374,-86,36,-33,-176,255,-624
2218,468,653,-4379,-118,34,-34,-176,255,-624
2219,470,657,-4395,-124,31,-45,-176,255,-624
2220,502,662,-4368,-139,17,-39,-176,255,-624
2221,477,646,-4353,-151,3,-44,-176,255,-624
2222,504,647,-4376,-161,-16,-42,-176,255,-624
2223,475,635,-4326,-160,-27,-40,-176,255,-624
2224,487,666,-4330,-144,-25,-39,-176,255,-624
2225,480,661,-4318,-143,-17,-43,-176,255,-624
2226,489,678,-4327,-156,-31,-46,-178,257,-621
2227,490,671,-4254,-142,-34,-54,-178,257,-621
2228,486,650,-4298,-127,-39,-49,-178,257,-621
2229,463,637,-4299,-126,-30,-48,-178,257,-621
2230,493,624,-4253,-128,-18,-49,-178,257,-621
2231,472,630,-4299,-136,-10,-41,-178,257,-621
2232,474,660,-4234,-142,-2,-38,-178,257,-621
2233,472,648,-4242,-139,0,-42,-178,257,-621
2234,492,649,-4232,-130,14,-33,-178,257,-621
2235,465,627,-4233,-123,28,-38,-178,257,-621
2236,441,645,-4213,-105,34,-33,-178,257,-621
2237,478,652,-4210,-101,32,-30,-178,257,-621
2238,488,652,-4246,-106,37,-23,-178,257,-621
2239,471,642,-4290,-104,32,-24,-178,257,-621
2240,481,629,-4323,-121,27,-21,-178,257,-621
2241,457,649,-4240,-132,14,-28,-178,257,-621
2242,478,642,-4223,-126,-5,-26,-178,257,-621
2243,476,681,-4190,-112,-1,-22,-186,262,-621
2244,487,661,-4249,-107,-9,-22,-186,262,-621
2245,469,674,-4233,-97,-6,-23,-186,262,-621
2246,484,661,-4267,-90,1,-21,-186,262,-621
2247,478,659,-4280,-83,-2,-25,-186,262,-621
2248,472,680,-4299,-71,-7,-30,-186,262,-621
2249,451,657,-4291,-48,0,-32,-186,262,-621
2250,460,640,-4339,-47,-4,-27,-186,262,-621
2251,452,638,-4313,-65,-2,-28,-186,262,-621
2252,451,601,-4314,-75,8,-31,-186,262,-621
2253,481,624,-4294,-86,4,-25,-186,262,-621
2254,446,625,-4265,-76,7,-23,-186,262,-621
2255,461,644,-4247,-75,6,-18,-186,262,-621
2256,481,632,-4259,-73,18,-18,-186,262,-621
2257,474,647,-4280,-85,25,-13,-186,262,-621
2258,475,617,-4240,-68,38,-12,-186,262,-621
2259,462,632,-4266,-65,33,-8,-178,255,-625
2260,458,655,-4308,-70,21,-7,-178,255,-625
2261,487,643,-4287,-68,28,-8,-178,255,-625
2262,494,625,-4310,-65,14,-3,-178,255,-625
2263,493,656,-4359,-61,9,1,-178,255,-625
2264,479,689,-4324,-55,-9,-9,-178,255,-625
2265,462,665,-4335,-47,-26,-9,-178,255,-625
2266,475,662,-4350,-54,-45,-14,-178,255,-625
2267,474,681,-4307,-66,-41,-23,-178,255,-625
2268,476,699,-4306,-64,-31,-27,-178,255,-625
2269,460,679,-4285,-57,-24,-33,-178,255,-625
2270,479,689,-4300,-51,-18,-33,-178,255,-625
2271,453,689,-4257,-38,-18,-37,-178,255,-625
2272,447,695,-4272,-18,2,-30,-178,255,-625
2273,462,650,-4279,-4,18,-29,-178,255,-625
2274,466,639,-4323,-11,32,-26,-178,255,-625
2275,457,614,-4322,-33,23,-19,-178,255,-625
2276,466,619,-4346,-48,14,-8,-181,256,-620
2277,460,619,-4330,-71,5,-6,-181,256,-620
2278,442,624,-4324,-94,0,-6,-181,256,-620
2279,434,702,-4314,-121,12,-7,-181,256,-620
2280,450,718,-4254,-106,15,-17,-181,256,-620
2281,483,693,-4277,-95,6,-17,-181,256,-620
2282,471,722,-4277,-75,2,-32,-181,256,-620
2283,483,700,-4242,-66,-6,-36,-181,256,-620
2284,473,654,-4232,-60,-6,-26,-181,256,-620
2285,453,670,-4298,-62,0,-24,-181,256,-620
2286,463,654,-4323,-78,-6,-27,-181,256,-620
2287,488,681,-4296,-87,-30,-21,-181,256,-620
2288,490,689,-4265,-91,-51,-29,-181,256,-620
2289,469,685,-4301,-96,-50,-29,-181,256,-620
2290,454,713,-4299,-103,-43,-25,-181,256,-620
2291,448,710,-4271,-100,-39,-24,-181,256,-620
2292,477,706,-4238,-88,-41,-28,-186,264,-625
2293,482,698,-4255,-83,-45,-27,-186,264,-625
2294,447,707,-4229,-85,-48,-35,-186,264,-625
2295,440,673,-4270,-80,-34,-40,-186,264,-625
2296,436,677,-4276,-82,-24,-40,-186,264,-625
2297,471,673,-4210,-74,-9,-34,-186,264,-625
2298,440,684,-4229,-75,-22,-40,-186,264,-625
2299,452,684,-4224,-67,-8,-38,-186,264,-625
2300,427,699,-4203,-53,3,-31,-186,264,-625
2301,445,714,-4218,-31,39,-36,-186,264,-625
2302,455,688,-4223,-37,68,-25,-186,264,-625
2303,454,679,-4273,-30,68,-22,-186,264,-625
2304,497,665,-4259,-28,57,-25,-186,264,-625
2305,461,666,-4227,-26,35,-19,-186,264,-625
2306,466,661,-4232,-10,39,-18,-186,264,-625
2307,467,655,-4288,-19,44,-11,-186,264,-625
2308,513,652,-4258,-39,58,-14,-186,264,-625
2309,496,682,-4260,-59,61,-14,-176,257,-625
2310,514,693,-4268,-64,38,-17,-176,257,-625
2311,511,708,-4298,-48,25,-25,-176,257,-625
2312,505,689,-4292,-34,11,-30,-176,257,-625
2313,510,664,-4322,-28,13,-32,-176,257,-625
2314,489,660,-4310,-29,12,-29,-176,257,-625
2315,502,652,-4351,-43,3,-23,-176,257,-625
2316,511,646,-4316,-47,6,-26,-176,257,-625
2317,481,673,-4308,-34,-2,-16,-176,257,-625
2318,464,661,-4298,-29,-1,-15,-176,257,-625
2319,472,652,-4286,-16,-3,-14,-176,257,-625
2320,454,660,-4275,-13,9,-10,-176,257,-625
2321,450,636,-4313,-12,27,-6,-176,257,-625
2322,453,665,-4302,-33,47,-1,-176,257,-625
2323,477,649,-4296,-55,67,3,-176,257,-625
2324,488,689,-4251,-57,90,-6,-176,257,-625
2325,498,722,-4272,5,98,-19,-180,255,-620
2326,500,717,-4327,85,118,-31,-180,255,-620
2327,543,651,-4273,67,100,-42,-180,255,-620
2328,519,570,-4310,3,27,-40,-180,255,-620
2329,486,587,-4368,-34,24,-31,-180,255,-620
2330,469,575,-4347,-47,25,-21,-180,255,-620
2331,484,575,-4319,-51,23,-6,-180,255,-620
2332,481,574,-4318,-62,18,-1,-180,255,-620
2333,501,578,-4276,-74,8,13,-180,255,-620
2334,453,594,-4281,-102,-1,15,-180,255,-620
2335,473,640,-4278,-121,-4,15,-180,255,-620
2336,491,648,-4237,-135,-10,22,-180,255,-620
2337,478,647,-4246,-137,-19,18,-180,255,-620
2338,490,667,-4219,-110,-17,19,-180,255,-620
2339,464,681,-4216,-90,-8,16,-180,255,-620
2340,432,665,-4257,-72,-5,17,-180,255,-620
2341,480,661,-4251,-66,-14,8,-180,255,-620
2342,488,626,-4274,-51,-19,9,-184,261,-626
2343,483,612,-4273,-39,-23,14,-184,261,-626
2344,457,624,-4223,-38,-29,15,-184,261,-626
2345,436,626,-4281,-36,-16,17,-184,261,-626
2346,436,645,-4274,-36,-11,22,-184,261,-626
2347,455,646,-4203,-45,-12,24,-184,261,-626
2348,466,642,-4261,-49,-2,29,-184,261,-626
2349,454,667,-4211,-61,4,29,-184,261,-626
2350,446,639,-4215,-63,2,29,-184,261,-626
2351,440,660,-4224,-45,-2,20,-184,261,-626
2352,422,680,-4233,-22,4,18,-184,261,-626
2353,442,661,-4263,-24,15,11,-184,261,-626
2354,470,694,-4206,-20,26,16,-184,261,-626
2355,462,670,-4264,-15,29,3,-184,261,-626
2356,461,687,-4289,-13,15,-1,-184,261,-626
2357,477,647,-4298,-6,3,-3,-184,261,-626
2358,459,626,-4290,-24,0,4,-178,255,-627
2359,456,622,-4319,-27,-6,4,-178,255,-627
2360,464,640,-4298,-31,-6,10,-178,255,-627
2361,460,621,-4298,-38,-12,12,-178,255,-627
2362,480,650,-4303,-49,-12,25,-178,255,-627
2363,466,669,-4300,-68,-12,23,-178,255,-627
2364,475,671,-4310,-64,0,22,-178,255,-627
2365,436,670,-4274,-55,-5,13,-178,255,-627
2366,483,702,-4323,-30,3,19,-178,255,-627
2367,493,687,-4319,-21,0,8,-178,255,-627
2368,499,680,-4307,-20,-1,4,-178,255,-627
2369,491,669,-4325,-24,6,0,-178,255,-627
2370,497,676,-4357,-17,-8,0,-178,255,-627
2371,486,649,-4403,-16,-9,-11,-178,255,-627
2372,499,640,-4378,-16,-4,-6,-178,255,-627
2373,513,633,-4423,-29,-12,-1,-178,255,-627
2374,482,646,-4401,-65,-21,-4,-178,255,-627
2375,471,667,-4388,-99,-19,-1,-181,256,-622
2376,488,653,-4349,-106,-18,3,-181,256,-622
2377,480,652,-4344,-98,-34,0,-181,256,-622
2378,477,649,-4325,-91,-36,2,-181,256,-622
2379,447,637,-4341,-101,-36,2,-181,256,-622
2380,474,671,-4291,-103,-12,-3,-181,256,-622
2381,472,662,-4278,-94,-3,-6,-181,256,-622
2382,491,677,-4294,-92,1,-9,-181,256,-622
2383,486,661,-4293,-86,4,-7,-181,256,-622
2384,496,645,-4320,-84,5,-5,-181,256,-622
2385,454,658,-4286,-74,15,-5,-181,256,-622
2386,483,643,-4323,-78,15,-4,-181,256,-622
2387,499,646,-4280,-78,30,4,-181,256,-622
2388,491,656,-4289,-90,31,-4,-181,256,-622
2389,475,649,-4260,-98,31,5,-181,256,-622
2390,509,658,-4304,-91,43,-3,-181,256,-622
2391,504,653,-4247,-91,41,-1,-181,256,-622
2392,482,652,-4224,-88,47,-7,-181,256,-622
2393,469,621,-4269,-79,52,-13,-181,256,-622
2394,500,637,-4299,-74,39,-18,-181,256,-622
2395,490,597,-4400,-67,28,-7,-181,256,-622
2396,491,607,-4374,-79,12,-6,-181,256,-622
2397,509,600,-4448,-108,-13,-11,-181,256,-622
2398,495,621,-4386,-123,-25,-10,-181,256,-622
2399,496,616,-4333,-143,-42,-5,-181,256,-622
2400,483,591,-4325,-150,-35,1,-181,256,-622
2401,459,606,-4333,-165,-19,12,-181,256,-622
2402,486,630,-4250,-182,-23,15,-181,256,-622
2403,480,659,-4253,-169,-14,9,-181,256,-622
2404,487,666,-4228,-147,-5,10,-181,256,-622
2405,486,683,-4202,-138,10,6,-181,256,-622
2406,510,653,-4275,-129,28,0,-181,256,-622
2407,513,625,-4264,-128,40,-1,-181,256,-622
2408,488,646,-4331,-113,44,3,-176,254,-627
2409,515,645,-4305,-97,31,3,-176,254,-627
2410,496,656,-4302,-69,14,5,-176,254,-627
2411,492,634,-4353,-66,-24,6,-176,254,-627
2412,498,614,-4280,-86,-42,16,-176,254,-627
2413,488,653,-4252,-110,-40,22,-176,254,-627
2414,466,672,-4272,-116,-22,24,-176,254,-627
2415,498,686,-4242,-118,1,26,-176,254,-627
2416,471,679,-4253,-119,3,20,-176,254,-627
2417,478,683,-4204,-121,-1,13,-176,254,-627
2418,496,708,-4214,-110,3,8,-176,254,-627
2419,479,666,-4238,-93,5,3,-176,254,-627
2420,493,700,-4206,-74,14,-7,-176,254,-627
2421,475,695,-4225,-65,4,-9,-176,254,-627
2422,496,642,-4217,-73,1,-9,-176,254,-627
2423,471,662,-4241,-65,6,-2,-176,254,-627
2424,442,669,-4284,-61,25,-8,-176,254,-627
2425,476,641,-4241,-53,38,-4,-176,254,-627
2426,454,644,-4261,-60,32,4,-176,254,-627
2427,462,669,-4280,-68,17,6,-176,254,-627
2428,463,686,-4267,-88,1,3,-176,254,-627
2429,474,668,-4330,-81,8,3,-176,254,-627
2430,465,691,-4306,-86,8,13,-176,254,-627
2431,501,653,-4280,-88,6,9,-176,254,-627
2432,484,655,-4331,-84,5,6,-176,254,-627
2433,470,653,-4287,-88,1,16,-176,254,-627
2434,474,662,-4260,-71,4,19,-176,254,-627
2435,479,664,-4274,-60,6,24,-176,254,-627
2436,470,656,-4310,-36,12,21,-176,254,-627
2437,480,675,-4331,-45,7,22,-176,254,-627
2438,480,680,-4325,-62,-15,16,-176,254,-627
2439,484,683,-4330,-77,-21,17,-176,254,-627
2440,474,677,-4315,-67,-8,15,-176,254,-627
2441,453,686,-4307,-62,-3,13,-186,263,-625
2442,456,673,-4300,-63,6,14,-186,263,-625
2443,488,678,-4252,-72,16,10,-186,263,-625
2444,493,684,-4295,-70,9,6,-186,263,-625
2445,482,656,-4267,-62,5,7,-186,263,-625
2446,503,704,-4262,-85,-4,12,-186,263,-625
2447,454,686,-4290,-89,-1,2,-186,263,-625
2448,482,721,-4283,-87,1,1,-186,263,-625
2449,491,704,-4290,-81,7,1,-186,263,-625
2450,483,682,-4281,-86,12,-2,-186,263,-625
2451,486,692,-4244,-88,10,-2,-186,263,-625
2452,489,702,-4249,-85,5,-7,-186,263,-625
2453,482,688,-4254,-81,3,-1,-186,263,-625
2454,473,710,-4250,-80,5,-7,-186,263,-625
2455,485,704,-4227,-71,8,-10,-186,263,-625
2456,445,681,-4232,-76,24,-4,-186,263,-625
2457,488,671,-4253,-74,39,-9,-186,263,-625
2458,482,681,-4285,-82,49,-11,-178,255,-621
2459,475,693,-4285,-86,45,-11,-178,255,-621
2460,488,685,-4311,-88,46,-17,-178,255,-621
2461,517,674,-4291,-72,41,-11,-178,255,-621
2462,472,705,-4281,-68,35,-20,-178,255,-621
2463,476,690,-4303,-54,29,-26,-178,255,-621
2464,476,686,-4358,-44,34,-24,-178,255,-621
2465,499,680,-4330,-40,29,-27,-178,255,-621
2466,505,673,-4324,-34,26,-26,-178,255,-621
2467,493,633,-4338,-46,23,-33,-178,255,-621
2468,496,642,-4276,-60,30,-31,-178,255,-621
2469,473,668,-4310,-75,33,-33,-178,255,-621
2470,476,642,-4265,-71,26,-26,-178,255,-621
2471,485,643,-4257,-85,36,-25,-178,255,-621
2472,469,640,-4281,-91,31,-25,-178,255,-621
2473,459,650,-4254,-88,28,-23,-178,255,-621
2474,456,656,-4265,-91,38,-12,-177,257,-619
2475,465,656,-4251,-91,58,-16,-177,257,-619
2476,468,634,-4314,-98,70,-17,-177,257,-619
2477,456,660,-4281,-97,60,-22,-177,257,-619
2478,469,639,-4318,-90,49,-27,-177,257,-619
2479,496,646,-4313,-92,40,-22,-177,257,-619
2480,473,612,-4339,-90,20,-23,-177,257,-619
2481,449,611,-4323,-90,20,-19,-177,257,-619
2482,448,611,-4312,-85,9,-19,-177,257,-619
2483,470,590,-4330,-85,5,-13,-177,257,-619
2484,489,604,-4284,-80,-4,-13,-177,257,-619
2485,477,615,-4294,-86,-9,-1,-177,257,-619
2486,504,601,-4317,-78,-10,10,-177,257,-619
2487,469,625,-4309,-85,-11,6,-177,257,-619
2488,475,614,-4260,-82,-5,18,-177,257,-619
2489,474,651,-4252,-74,6,17,-177,257,-619
2490,489,608,-4255,-71,13,25,-177,257,-619
2491,464,671,-4233,-76,11,26,-186,265,-622
2492,461,685,-4219,-67,23,28,-186,265,-622
2493,492,679,-4231,-53,29,26,-186,265,-622
2494,474,727,-4258,-30,38,25,-186,265,-622
2495,486,724,-4248,-24,43,20,-186,265,-622
2496,519,710,-4285,-8,48,11,-186,265,-622
2497,517,672,-4303,-26,36,4,-186,265,-622
2498,499,659,-4354,-42,29,7,-186,265,-622
2499,520,646,-4315,-60,11,3,-186,265,-622
2500,511,645,-4336,-76,9,6,-186,265,-622
