,ax,ay,az,gx,gy,gz,cx,cy,cz
1,822,814,-4217,-56,8,7,-110,290,-615
2,830,802,-4252,-42,5,-1,-110,290,-615
3,837,765,-4230,-44,-4,-9,-110,290,-615
4,809,804,-4293,-43,8,-11,-110,290,-615
5,806,775,-4228,-60,-2,-8,-110,290,-615
6,813,798,-4237,-38,1,-5,-110,290,-615
7,815,778,-4191,-16,29,-1,-110,290,-615
8,798,798,-4194,9,33,1,-110,290,-615
9,826,808,-4224,23,45,-3,-110,290,-615
10,843,813,-4237,33,25,-8,-110,290,-615
11,803,761,-4282,22,30,-13,-110,290,-615
12,810,783,-4274,-6,11,-22,-110,290,-615
13,811,784,-4256,-30,0,-18,-115,292,-623
14,851,767,-4306,-37,-27,-20,-115,292,-623
15,812,760,-4269,-50,-39,-22,-115,292,-623
16,806,792,-4223,-53,-55,-21,-115,292,-623
17,800,805,-4232,-70,-53,-24,-115,292,-623
18,777,779,-4185,-63,-51,-16,-115,292,-623
19,805,809,-4178,-53,-43,-17,-115,292,-623
20,794,789,-4167,-54,-45,-18,-115,292,-623
21,789,756,-4169,-41,-29,-9,-115,292,-623
22,768,767,-4168,-28,-10,-5,-115,292,-623
23,805,709,-4175,-19,-18,9,-115,292,-623
24,767,703,-4230,-28,-10,28,-115,292,-623
25,760,730,-4271,-32,-23,34,-115,292,-623
26,775,713,-4264,-49,-23,39,-115,292,-623
27,785,783,-4242,-53,-41,40,-115,292,-623
28,766,782,-4252,-40,-51,44,-115,292,-623
29,794,769,-4254,-34,-67,45,-115,292,-623
30,779,785,-4285,-28,-75,48,-114,286,-617
31,773,763,-4233,-26,-80,56,-114,286,-617
32,776,754,-4214,-42,-72,66,-114,286,-617
33,781,736,-4241,-37,-69,73,-114,286,-617
34,762,773,-4220,-34,-67,73,-114,286,-617
35,810,733,-4183,-38,-69,83,-114,286,-617
36,823,752,-4215,-48,-75,86,-114,286,-617
37,779,731,-4213,-56,-77,89,-114,286,-617
38,798,770,-4147,-93,-70,98,-114,286,-617
39,812,760,-4185,-106,-73,97,-114,286,-617
40,800,794,-4168,-112,-69,89,-114,286,-617
41,825,814,-4109,-101,-66,92,-114,286,-617
42,799,820,-4096,-91,-58,85,-114,286,-617
43,798,852,-4137,-106,-33,71,-114,286,-617
44,773,883,-4177,-104,-13,65,-114,286,-617
45,800,885,-4181,-77,3,55,-114,286,-617
46,767,841,-4155,-66,5,50,-122,296,-619
47,785,854,-4185,-52,11,46,-122,296,-619
48,800,846,-4202,-43,3,48,-122,296,-619
49,803,846,-4239,-47,5,42,-122,296,-619
50,795,837,-4223,-41,2,37,-122,296,-619
51,801,845,-4267,-36,5,36,-122,296,-619
52,786,844,-4176,-31,3,31,-122,296,-619
53,795,857,-4241,-26,-1,18,-122,296,-619
54,812,822,-4246,-34,-18,14,-122,296,-619
55,791,795,-4237,-50,-19,7,-122,296,-619
56,782,787,-4271,-54,-23,9,-122,296,-619
57,798,777,-4237,-57,-35,13,-122,296,-619
58,798,763,-4226,-52,-46,22,-122,296,-619
59,804,779,-4231,-67,-44,22,-122,296,-619
60,788,804,-4223,-71,-43,25,-122,296,-619
61,790,790,-4162,-64,-43,33,-122,296,-619
62,807,799,-4174,-67,-43,32,-122,296,-619
63,797,790,-4179,-76,-37,28,-122,296,-619
64,809,805,-4161,-81,-30,29,-122,296,-619
65,791,825,-4190,-84,-15,17,-122,296,-619
66,818,796,-4152,-74,-6,17,-122,296,-619
67,795,825,-4186,-57,2,9,-122,296,-619
68,786,808,-4178,-54,-5,6,-122,296,-619
69,787,814,-4183,-47,-13,-8,-122,296,-619
70,814,826,-4245,-47,-23,-14,-122,296,-619
71,800,816,-4239,-46,-27,-22,-122,296,-619
72,806,795,-4254,-57,-20,-24,-122,296,-619
73,805,786,-4260,-67,-32,-33,-122,296,-619
74,771,788,-4240,-60,-33,-31,-122,296,-619
75,769,755,-4190,-56,-28,-32,-122,296,-619
76,750,754,-4259,-45,-30,-23,-122,296,-619
77,749,730,-4220,-58,-21,-23,-122,296,-619
78,750,752,-4165,-50,-13,-18,-122,296,-619
79,783,765,-4148,-42,-6,-13,-114,287,-615
80,769,763,-4162,-44,3,-13,-114,287,-615
81,801,782,-4224,-44,-5,-18,-114,287,-615
82,817,773,-4193,-35,-11,-25,-114,287,-615
83,778,728,-4213,-58,-26,-25,-114,287,-615
84,789,723,-4244,-82,-49,-23,-114,287,-615
85,778,677,-4216,-84,-58,-6,-114,287,-615
86,776,674,-4210,-79,-59,2,-114,287,-615
87,737,670,-4205,-87,-63,22,-114,287,-615
88,752,726,-4187,-86,-47,31,-114,287,-615
89,771,733,-4198,-74,-27,54,-114,287,-615
90,772,758,-4169,-59,-14,59,-114,287,-615
91,805,739,-4185,-33,-11,61,-114,287,-615
92,782,778,-4234,-17,-10,70,-114,287,-615
93,795,762,-4249,-15,-13,63,-114,287,-615
94,788,766,-4227,-16,-22,69,-114,287,-615
95,795,747,-4203,-26,-39,78,-114,287,-615
96,780,761,-4257,-29,-31,75,-114,287,-615
97,786,778,-4212,-39,-18,70,-114,287,-615
98,773,781,-4238,-43,-10,70,-114,287,-615
99,811,818,-4261,-44,-2,67,-114,287,-615
100,816,832,-4227,-33,-18,56,-114,287,-615
101,802,864,-4330,-34,-7,43,-114,287,-615
102,825,860,-4251,-31,-18,21,-114,287,-615
103,817,822,-4282,-45,-19,2,-114,287,-615
104,840,803,-4288,-52,-22,7,-114,287,-615
105,781,808,-4279,-55,-21,-3,-114,287,-615
106,761,774,-4255,-50,-15,-4,-114,287,-615
107,801,777,-4236,-51,-14,-3,-114,287,-615
108,799,770,-4254,-59,-9,-6,-114,287,-615
109,798,760,-4279,-77,-9,-3,-114,287,-615
110,772,761,-4236,-84,-2,-12,-114,287,-615
111,787,747,-4236,-89,-11,-8,-114,287,-615
112,772,699,-4191,-89,-23,-7,-119,292,-622
113,757,715,-4212,-85,-36,-6,-119,292,-622
114,769,672,-4175,-69,-47,15,-119,292,-622
115,735,733,-4161,-51,-48,24,-119,292,-622
116,774,752,-4108,-24,-33,24,-119,292,-622
117,807,855,-4027,16,-46,12,-119,292,-622
118,794,930,-4021,72,-70,-1,-119,292,-622
119,776,884,-3998,135,-73,-15,-119,292,-622
120,759,859,-4028,188,-34,-30,-119,292,-622
121,732,772,-4150,196,11,-23,-119,292,-622
122,739,716,-4235,158,47,-12,-119,292,-622
123,752,606,-4369,102,68,12,-119,292,-622
124,722,590,-4438,37,43,23,-119,292,-622
125,732,582,-4499,16,-9,68,-119,292,-622
126,728,593,-4523,-7,-61,77,-119,292,-622
127,752,681,-4498,-36,-122,83,-119,292,-622
128,737,687,-4431,-64,-165,97,-119,292,-622
129,763,717,-4370,-74,-182,102,-119,292,-622
130,755,749,-4327,-68,-159,120,-119,292,-622
131,748,709,-4232,-59,-132,127,-119,292,-622
132,790,720,-4181,-69,-124,128,-119,292,-622
133,767,754,-4165,-54,-106,140,-119,292,-622
134,758,738,-4113,-19,-84,146,-119,292,-622
135,753,723,-4164,12,-55,161,-119,292,-622
136,787,779,-4142,20,-46,166,-119,292,-622
137,761,721,-4180,9,-58,155,-119,292,-622
138,771,720,-4158,-6,-56,160,-119,292,-622
139,798,692,-4235,-23,-67,157,-119,292,-622
140,770,747,-4208,-40,-65,155,-119,292,-622
141,764,747,-4213,-60,-57,159,-119,292,-622
142,757,748,-4209,-86,-32,159,-119,292,-622
143,780,767,-4216,-97,-29,155,-119,292,-622
144,792,787,-4178,-97,-28,152,-119,292,-622
145,815,825,-4195,-75,-43,141,-121,294,-614
146,802,875,-4145,-52,-48,124,-121,294,-614
147,806,875,-4188,-23,-57,109,-121,294,-614
148,813,845,-4135,-4,-71,83,-121,294,-614
149,772,824,-4170,-2,-41,78,-121,294,-614
150,779,801,-4209,-9,-20,70,-121,294,-614
151,787,814,-4173,-22,-12,60,-121,294,-614
152,789,835,-4238,-9,5,53,-121,294,-614
153,763,814,-4251,-3,-6,43,-121,294,-614
154,768,749,-4314,1,-28,41,-121,294,-614
155,773,730,-4365,-12,-57,46,-121,294,-614
156,750,698,-4393,-26,-71,56,-121,294,-614
157,711,672,-4340,-42,-104,67,-121,294,-614
158,718,664,-4356,-33,-109,90,-121,294,-614
159,711,682,-4312,-9,-116,111,-121,294,-614
160,714,649,-4278,5,-119,137,-121,294,-614
161,738,674,-4300,-21,-101,149,-118,287,-625
162,735,697,-4248,-29,-80,164,-118,287,-625
163,732,742,-4231,-54,-69,167,-118,287,-625
164,732,726,-4148,-40,-37,173,-118,287,-625
165,735,662,-4163,-29,-22,181,-118,287,-625
166,728,685,-4180,-19,8,210,-118,287,-625
167,745,690,-4185,-23,31,211,-118,287,-625
168,767,643,-4218,-40,39,232,-118,287,-625
169,778,620,-4245,-32,15,250,-118,287,-625
170,759,638,-4303,-4,-17,266,-118,287,-625
171,760,609,-4393,21,-59,277,-118,287,-625
172,722,572,-4439,10,-101,303,-118,287,-625
173,692,537,-4460,-13,-137,336,-118,287,-625
174,714,506,-4500,-34,-180,373,-118,287,-625
175,689,509,-4461,-65,-220,419,-118,287,-625
176,686,527,-4375,-50,-246,463,-118,287,-625
177,699,587,-4343,-46,-247,507,-118,287,-625
178,727,643,-4266,-21,-240,533,-118,287,-625
179,733,717,-4217,-3,-239,545,-118,287,-625
180,753,727,-4209,25,-226,554,-118,287,-625
181,722,734,-4237,41,-225,571,-118,287,-625
182,728,702,-4248,38,-202,575,-118,287,-625
183,732,675,-4246,19,-191,579,-118,287,-625
184,744,683,-4283,-26,-186,588,-118,287,-625
185,665,693,-4289,-125,-167,625,-118,287,-625
186,787,434,-4234,-443,-267,581,-118,287,-625
187,735,689,-4064,-181,-118,656,-118,287,-625
188,776,786,-4053,-182,-120,652,-118,287,-625
189,824,668,-4099,-82,-19,706,-118,287,-625
190,786,699,-4119,-77,-85,714,-118,287,-625
191,780,680,-4190,-218,-205,703,-118,287,-625
192,671,683,-4296,-218,-150,726,-118,287,-625
193,655,570,-4294,-143,-71,787,-118,287,-625
194,696,499,-4351,-109,-101,847,-116,293,-621
195,684,463,-4416,-118,-126,901,-116,293,-621
196,669,508,-4443,-130,-131,958,-116,293,-621
197,692,509,-4389,-148,-143,1012,-116,293,-621
198,774,585,-4285,-146,-201,1009,-116,293,-621
199,753,708,-4281,-104,-224,1087,-116,293,-621
200,787,787,-4281,-86,-251,1099,-116,293,-621
201,787,854,-4293,-70,-279,1085,-116,293,-621
202,779,857,-4254,-36,-315,1066,-116,293,-621
203,752,757,-4270,0,-338,1055,-116,293,-621
204,734,665,-4268,16,-344,1072,-116,293,-621
205,696,554,-4269,7,-342,1103,-116,293,-621
206,885,606,-4080,-13,-407,1153,-116,293,-621
207,649,563,-4250,-89,-285,1188,-116,293,-621
208,725,575,-4144,-113,-307,1218,-116,293,-621
209,638,519,-4207,-189,-335,1268,-116,293,-621
210,587,678,-4291,-269,-379,1214,-103,292,-623
211,816,620,-4058,-62,-292,1298,-103,292,-623
212,780,901,-4180,-40,-298,1283,-103,292,-623
213,726,711,-4235,-60,-87,1332,-103,292,-623
214,912,653,-4128,-227,-344,1284,-103,292,-623
215,624,782,-4228,-251,-305,1273,-103,292,-623
216,841,927,-4169,-211,-268,1251,-103,292,-623
217,845,952,-4129,-187,-307,1210,-103,292,-623
218,863,984,-4135,-174,-332,1163,-103,292,-623
219,788,1009,-4186,-164,-333,1115,-103,292,-623
220,840,964,-4231,-193,-314,1060,-103,292,-623
221,867,914,-4284,-266,-338,1020,-103,292,-623
222,845,859,-4254,-328,-391,990,-103,292,-623
223,791,897,-4216,-352,-415,973,-103,292,-623
224,1060,617,-4252,-518,-472,1029,-103,292,-623
225,941,1250,-4114,-276,-451,927,-103,292,-623
226,877,932,-4081,-417,-410,929,-103,292,-623
227,738,1114,-4029,-271,-391,896,-103,292,-623
228,863,1068,-3917,-315,-376,837,-103,292,-623
229,937,1190,-3764,-354,-552,752,-103,292,-623
230,787,1261,-3857,-306,-414,698,-103,292,-623
231,850,1271,-3759,-218,-371,627,-103,292,-623
232,839,1250,-3853,-184,-331,545,-103,292,-623
233,916,1275,-3878,-128,-350,461,-103,292,-623
234,878,1344,-3864,-61,-327,379,-103,292,-623
235,931,1378,-3906,-13,-322,283,-103,292,-623
236,922,1410,-3922,19,-348,169,-103,292,-623
237,965,1397,-3918,45,-405,51,-103,292,-623
238,914,1443,-3913,65,-408,-58,-103,292,-623
239,944,1389,-3940,89,-418,-182,-103,292,-623
240,960,1342,-3890,129,-439,-283,-103,292,-623
241,928,1324,-3934,186,-440,-372,-103,305,-616
242,906,1334,-3951,245,-406,-451,-106,305,-616
243,928,1340,-3957,280,-401,-546,-106,305,-616
244,979,1386,-3921,323,-439,-649,-106,305,-616
245,979,1411,-3958,404,-503,-758,-106,305,-616
246,962,1545,-3870,549,-549,-868,-106,305,-616
247,1002,1700,-3774,707,-541,-992,-106,305,-616
248,1049,1848,-3708,994,-532,-1136,-106,305,-616
249,1115,1958,-3675,1302,-538,-1314,-106,305,-616
250,1143,2028,-3709,1555,-559,-1539,-106,305,-616
251,1245,2097,-3745,1727,-581,-1829,-106,305,-616
252,1210,2109,-3773,1846,-512,-2169,-106,305,-616
253,1286,2408,-3593,1929,-527,-2574,-106,305,-616
254,1390,2323,-3360,2150,-604,-2946,-106,305,-616
255,1348,2220,-3222,2300,-682,-3367,-106,305,-616
256,1310,2009,-3070,2411,-756,-3815,-106,305,-616
257,1162,1963,-3090,2579,-624,-4195,-136,265,-633
258,1080,1586,-3119,2731,-430,-4531,-136,265,-633
259,988,1052,-3317,2683,-219,-4796,-136,265,-633
260,912,693,-3458,2525,2,-5008,-136,265,-633
261,892,435,-3639,2289,172,-5127,-136,265,-633
262,886,274,-3757,1986,320,-5208,-136,265,-633
263,822,117,-3950,1677,447,-5293,-136,265,-633
264,793,-96,-4099,1372,594,-5322,-136,265,-633
265,739,-297,-4277,1065,777,-5300,-136,265,-633
266,872,-454,-4464,708,974,-5208,-136,265,-633
267,784,-413,-4709,283,1146,-5114,-136,265,-633
268,917,-146,-4815,-83,1347,-5049,-136,265,-633
269,938,50,-4811,-246,1456,-5070,-136,265,-633
270,971,145,-4981,-297,1573,-5062,-136,265,-633
271,992,163,-5040,-457,1648,-5086,-136,265,-633
272,1042,71,-4960,-727,1607,-5156,-136,265,-633
273,874,-64,-4877,-908,1578,-5181,-161,226,-635
274,682,-246,-4822,-900,1650,-5093,-161,226,-635
275,721,-532,-4783,-858,1738,-4872,-161,226,-635
276,632,-684,-4886,-869,1799,-4590,-161,226,-635
277,590,-699,-4859,-873,1861,-4318,-161,226,-635
278,492,-673,-4738,-778,1879,-4058,-161,226,-635
279,713,-393,-4376,-306,1742,-3828,-161,226,-635
280,764,245,-3983,632,1451,-3685,-161,226,-635
281,943,-196,-4294,840,1233,-3495,-161,226,-635
282,834,-1408,-4817,-315,1334,-3281,-161,226,-635
283,-156,-321,-4280,-456,1526,-3233,-161,226,-635
284,118,-604,-3678,-44,2303,-2826,-161,226,-635
285,114,-583,-3478,651,2421,-2614,-161,226,-635
286,398,-1018,-3744,1153,2421,-2251,-161,226,-635
287,304,-1319,-4236,943,2411,-1912,-161,226,-635
288,249,-1358,-4418,830,2533,-1565,-161,223,-650
289,238,-1380,-4616,732,2786,-1172,-161,223,-650
290,333,-1191,-4722,841,2853,-811,-161,223,-650
291,465,-1053,-4906,989,2737,-532,-161,223,-650
292,620,-1034,-5239,945,2409,-293,-161,223,-650
293,677,-996,-5485,716,2027,-124,-161,223,-650
294,735,-853,-5521,441,1658,-1,-161,223,-650
295,692,-694,-5417,299,1392,102,-161,223,-650
296,702,-599,-5298,282,1210,213,-161,223,-650
297,692,-529,-5090,283,1029,319,-161,223,-650
298,668,-591,-4958,264,865,437,-161,223,-650
299,590,-669,-4858,248,746,587,-161,223,-650
300,603,-763,-4763,227,648,755,-161,223,-650
301,549,-860,-4711,222,569,954,-161,223,-650
302,525,-879,-4556,248,488,1183,-161,223,-650
303,524,-845,-4552,260,462,1412,-161,223,-650
304,567,-795,-4538,290,444,1634,-124,204,-660
305,645,-657,-4564,374,338,1832,-124,204,-660
306,651,-628,-4807,455,248,2017,-124,204,-660
307,672,-858,-5104,498,66,2204,-124,204,-660
308,698,-1011,-5276,448,-185,2402,-124,204,-660
309,712,-1035,-5463,344,-443,2642,-124,204,-660
310,645,-1053,-5560,180,-619,2850,-124,204,-660
311,814,-1013,-5374,42,-882,3095,-124,204,-660
312,721,-956,-5305,-129,-1058,3305,-124,204,-660
313,814,-848,-5118,-246,-1265,3505,-124,204,-660
314,856,-736,-4920,-333,-1407,3679,-124,204,-660
315,853,-673,-4772,-431,-1413,3840,-124,204,-660
316,1001,-481,-4515,-483,-1546,3965,-124,204,-660
317,893,-398,-4373,-538,-1564,4079,-124,204,-660
318,1020,-201,-4120,-551,-1534,4156,-124,204,-660
319,1101,-20,-4059,-623,-1423,4230,-124,204,-660
320,1144,164,-3918,-664,-1259,4226,-117,206,-651
321,1275,471,-3775,-535,-1148,4153,-117,206,-651
322,1519,710,-3823,-256,-1144,4060,-117,206,-651
323,1373,652,-3855,235,-1107,4045,-117,206,-651
324,1356,480,-4256,-80,-1155,3917,-117,206,-651
325,1320,550,-4510,-132,-1151,3851,-117,206,-651
326,1205,458,-4665,-282,-1109,3772,-117,206,-651
327,1253,458,-4691,-368,-1114,3711,-117,206,-651
328,1330,464,-4608,-333,-1221,3661,-117,206,-651
329,1154,336,-4651,-394,-1251,3626,-117,206,-651
330,1111,204,-4578,-435,-1271,3627,-117,206,-651
331,1047,76,-4657,-525,-1246,3650,-117,206,-651
332,1010,-39,-4781,-658,-1192,3714,-117,206,-651
333,1013,-103,-4802,-861,-1182,3782,-117,206,-651
334,1044,-58,-4753,-1055,-1210,3840,-117,206,-651
335,1076,59,-4689,-1238,-1259,3877,-117,206,-651
336,1125,303,-4517,-1378,-1287,3896,-119,228,-649
337,1229,489,-4356,-1476,-1321,3897,-119,228,-649
338,1269,710,-4205,-1583,-1373,3890,-119,228,-649
339,1112,1166,-3951,-1625,-1309,3668,-119,228,-649
340,1337,1391,-3723,-1638,-1172,3366,-119,228,-649
341,1354,1630,-3647,-1391,-1141,3116,-119,228,-649
342,1204,1516,-3713,-1279,-1030,2828,-119,228,-649
343,922,1435,-3844,-1055,-895,2588,-119,228,-649
344,913,1002,-3994,-1022,-790,2440,-119,228,-649
345,912,659,-3961,-1100,-691,2386,-119,228,-649
346,912,534,-4013,-1246,-635,2366,-119,228,-649
347,1198,195,-4078,-1462,-702,2433,-119,228,-649
348,949,632,-4144,-1329,-609,2410,-119,228,-649
349,969,244,-4190,-1552,-633,2414,-119,228,-649
350,673,816,-4265,-1311,-498,2414,-119,228,-649
351,1185,633,-4313,-1461,-652,2274,-106,258,-636
352,1147,1043,-4209,-1223,-723,2205,-106,258,-636
353,1170,1085,-4219,-1533,-956,2049,-106,258,-636
354,769,1282,-4196,-1399,-849,1941,-106,258,-636
355,1178,1054,-3900,-1632,-961,1780,-106,258,-636
356,849,1224,-3801,-1425,-886,1627,-106,258,-636
357,878,1050,-3725,-1272,-737,1530,-106,258,-636
358,868,1042,-3672,-1050,-640,1484,-106,258,-636
359,972,619,-3757,-1116,-643,1406,-106,258,-636
360,815,697,-3789,-856,-500,1433,-106,258,-636
361,885,462,-3893,-1122,-539,1467,-106,258,-636
362,471,707,-4047,-1014,-454,1458,-106,258,-636
363,881,645,-3867,-1023,-347,1487,-106,258,-636
364,954,858,-3889,-1111,-522,1458,-106,258,-636
365,510,983,-4076,-876,-167,1446,-106,258,-636
366,1164,784,-4016,-1127,-404,1334,-106,258,-636
367,811,1268,-3920,-865,-405,1245,-104,275,-617
368,830,1173,-3933,-923,-334,1142,-104,275,-617
369,690,1189,-3878,-785,-419,1019,-104,275,-617
370,726,1140,-3903,-736,-305,921,-104,275,-617
371,871,1123,-3786,-667,-304,858,-104,275,-617
372,657,1197,-3845,-614,-187,773,-104,275,-617
373,613,912,-3897,-563,-99,728,-104,275,-617
374,778,1015,-3998,-573,-140,663,-104,275,-617
375,716,953,-4124,-586,-122,605,-104,275,-617
376,836,959,-4244,-661,-233,524,-104,275,-617
377,783,1013,-4332,-737,-302,475,-104,275,-617
378,928,942,-4353,-899,-436,466,-104,275,-617
379,1031,1197,-4272,-798,-296,456,-104,275,-617
380,823,1256,-4322,-899,-351,308,-104,275,-617
381,910,1488,-4164,-812,-478,176,-104,275,-617
382,912,1493,-3958,-730,-423,58,-104,275,-617
383,891,1528,-3825,-642,-336,-51,-106,301,-617
384,880,1581,-3730,-500,-314,-163,-106,301,-617
385,881,1580,-3679,-349,-189,-281,-106,301,-617
386,901,1574,-3594,-264,-92,-400,-106,301,-617
387,909,1617,-3666,-166,10,-546,-106,301,-617
388,914,1686,-3584,-23,120,-666,-106,301,-617
389,917,1743,-3612,91,238,-810,-106,301,-617
390,1042,1850,-3678,109,393,-1002,-106,301,-617
391,1169,2095,-3692,44,571,-1256,-106,301,-617
392,1227,2449,-3685,-74,825,-1537,-106,301,-617
393,1395,2815,-3659,-202,1064,-1885,-106,301,-617
394,1669,3169,-3543,-243,1291,-2357,-106,301,-617
395,1770,3511,-3528,-238,1478,-2878,-106,301,-617
396,1906,3630,-3329,-106,1554,-3435,-106,301,-617
397,1902,3701,-3281,151,1661,-3992,-106,301,-617
398,1931,3484,-3298,367,1735,-4579,-107,294,-624
399,2069,3166,-3189,398,1821,-5156,-107,294,-624
400,2039,2876,-3189,257,2032,-5688,-107,294,-624
401,2028,2430,-2916,86,2316,-6185,-107,294,-624
402,1914,2177,-2801,-12,2510,-6523,-107,294,-624
403,1793,1869,-2621,-1,2803,-6770,-107,294,-624
404,1741,1368,-2490,29,3162,-6902,-107,294,-624
405,1509,964,-2478,6,3591,-6969,-107,294,-624
406,1396,595,-2430,-66,4186,-6971,-107,294,-624
407,1301,229,-2440,-146,4728,-6900,-107,294,-624
408,1240,-231,-2398,-157,5264,-6705,-107,294,-624
409,1154,-536,-2505,-278,5775,-6440,-107,294,-624
410,1073,-760,-2612,-452,6374,-6088,-107,294,-624
411,1040,-854,-2743,-538,6981,-5727,-107,294,-624
412,991,-1124,-2998,-677,7909,-5311,-107,294,-624
413,985,-1154,-3402,-1019,8418,-4836,-107,294,-624
414,1117,-914,-3980,-770,8612,-4437,-80,286,-623
415,1432,-943,-4865,-509,7922,-4096,-80,286,-623
416,1529,-757,-5672,-266,7328,-3899,-80,286,-623
417,1568,-907,-6291,-320,6544,-3670,-80,286,-623
418,1291,-906,-6935,-618,5757,-3427,-80,286,-623
419,1326,-770,-7290,-961,5072,-3155,-80,286,-623
420,1309,-693,-7411,-1172,4100,-2882,-80,286,-623
421,1386,-654,-7346,-1216,3089,-2577,-80,286,-623
422,1310,-630,-7256,-1180,2158,-2256,-80,286,-623
423,1247,-595,-6943,-1126,1488,-1892,-80,286,-623
424,1109,-690,-6686,-999,912,-1500,-80,286,-623
425,1137,-615,-6372,-896,555,-1107,-80,286,-623
426,1209,-484,-6008,-727,245,-735,-80,286,-623
427,1177,-356,-5615,-540,90,-379,-80,286,-623
428,1204,-175,-5291,-426,50,-116,-80,286,-623
429,1288,41,-4984,-309,-43,49,-80,286,-623
430,1316,170,-4720,-259,-57,146,-44,305,-625
431,1386,361,-4455,-163,8,226,-44,305,-625
432,1458,500,-4209,28,104,298,-44,305,-625
433,1487,542,-4042,104,213,322,-44,305,-625
434,1513,630,-4009,164,353,331,-44,305,-625
435,1573,660,-3984,154,471,297,-44,305,-625
436,1599,745,-4013,172,549,264,-44,305,-625
437,1630,701,-4105,209,581,204,-44,305,-625
438,1637,579,-4199,148,523,121,-44,305,-625
439,1657,534,-4297,31,395,35,-44,305,-625
440,1681,445,-4346,-99,209,-36,-44,305,-625
441,1697,391,-4385,-255,30,-98,-44,305,-625
442,1635,314,-4376,-421,-90,-116,-44,305,-625
443,1677,270,-4335,-571,-191,-120,-44,305,-625
444,1596,307,-4312,-655,-252,-88,-44,305,-625
445,1535,359,-4249,-683,-261,-44,-44,305,-625
446,1548,395,-4206,-659,-266,15,-34,303,-624
447,1524,443,-4195,-654,-261,65,-34,303,-624
448,1488,433,-4188,-615,-268,130,-34,303,-624
449,1395,368,-4224,-520,-282,208,-34,303,-624
450,1320,247,-4373,-386,-298,326,-34,303,-624
451,1308,27,-4519,-293,-386,483,-34,303,-624
452,1219,-159,-4657,-285,-542,658,-34,303,-624
453,1203,-221,-4665,-282,-710,868,-34,303,-624
454,1219,-183,-4647,-266,-901,1099,-34,303,-624
455,1195,-152,-4591,-229,-1010,1314,-34,303,-624
456,1179,-33,-4521,-227,-1095,1532,-34,303,-624
457,1278,74,-4467,-217,-1204,1702,-34,303,-624
458,1342,273,-4395,-215,-1278,1823,-34,303,-624
459,1306,448,-4376,-242,-1317,1896,-34,303,-624
460,1335,676,-4226,-234,-1304,1908,-34,303,-624
461,1464,810,-4109,-219,-1301,1877,-34,303,-624
462,1453,894,-4030,-160,-1293,1841,-36,302,-615
463,1512,901,-4064,-116,-1277,1831,-36,302,-615
464,1536,908,-4035,-151,-1259,1809,-36,302,-615
465,1485,949,-4002,-236,-1216,1763,-36,302,-615
466,1526,1016,-3943,-358,-1184,1688,-36,302,-615
467,1556,1130,-3872,-328,-1198,1615,-36,302,-615
468,1599,1162,-3842,-275,-1210,1536,-36,302,-615
469,1610,1167,-3831,-244,-1274,1487,-36,302,-615
470,1623,1153,-3824,-330,-1268,1400,-36,302,-615
471,1595,1184,-3837,-420,-1287,1308,-36,302,-615
472,1570,1198,-3843,-437,-1295,1231,-36,302,-615
473,1444,1030,-3893,-413,-1288,1194,-36,302,-615
474,1385,1059,-3969,-196,-1325,1183,-36,302,-615
475,1339,669,-4219,-278,-1350,1216,-36,302,-615
476,1225,411,-4571,-287,-1405,1321,-36,302,-615
477,1164,12,-4804,-410,-1558,1496,-54,317,-619
478,1127,-126,-4864,-645,-1723,1670,-54,317,-619
479,1100,-42,-4803,-790,-1885,1871,-54,317,-619
480,1145,115,-4681,-832,-2052,2056,-54,317,-619
481,1252,335,-4462,-891,-2137,2204,-54,317,-619
482,1363,649,-4339,-854,-2171,2326,-54,317,-619
483,1437,932,-4111,-817,-2160,2425,-54,317,-619
484,1418,1139,-3953,-813,-2132,2368,-54,317,-619
485,1467,1399,-3717,-759,-1991,2289,-54,317,-619
486,1477,1561,-3590,-616,-1875,2198,-54,317,-619
487,1476,1629,-3533,-428,-1755,2089,-54,317,-619
488,1460,1637,-3544,-254,-1611,1967,-54,317,-619
489,1369,1583,-3625,-145,-1465,1840,-54,317,-619
490,1429,1516,-3635,-88,-1413,1715,-54,317,-619
491,1389,1501,-3654,-64,-1404,1615,-54,317,-619
492,1393,1389,-3719,4,-1461,1502,-54,317,-619
493,1243,1179,-3879,39,-1480,1423,-60,320,-616
494,1144,1041,-4040,84,-1473,1401,-60,320,-616
495,1070,579,-4165,-127,-1489,1437,-60,320,-616
496,1072,539,-4227,-111,-1536,1495,-60,320,-616
497,1048,308,-4271,-261,-1527,1629,-60,320,-616
498,990,169,-4271,-490,-1478,1816,-60,320,-616
499,888,369,-4235,-482,-1359,1960,-60,320,-616
500,1079,243,-4177,-619,-1440,2084,-60,320,-616
501,959,512,-4186,-594,-1401,2211,-60,320,-616
502,1118,460,-4041,-738,-1409,2377,-60,320,-616
503,929,729,-4149,-816,-1419,2384,-60,320,-616
504,973,503,-4090,-863,-1289,2491,-60,320,-616
505,1114,663,-3937,-881,-1241,2524,-60,320,-616
506,1137,871,-3757,-760,-1067,2582,-60,320,-616
507,1044,1046,-3684,-839,-1124,2616,-60,320,-616
508,862,1223,-3607,-652,-999,2628,-60,320,-616
509,1155,1242,-3503,-711,-1001,2502,-56,323,-604
510,1202,1453,-3491,-622,-1044,2423,-56,323,-604
511,938,1694,-3574,-475,-922,2291,-56,323,-604
512,1337,1522,-3570,-503,-1002,2170,-56,323,-604
513,1452,1722,-3647,-396,-1017,2041,-56,323,-604
514,1226,1654,-3689,-343,-909,1905,-56,323,-604
515,1185,1575,-3747,-360,-907,1761,-56,323,-604
516,1341,1399,-3867,-415,-972,1697,-56,323,-604
517,1059,1444,-4038,-380,-841,1574,-56,323,-604
518,1280,1061,-4164,-573,-932,1501,-56,323,-604
519,1294,1034,-4184,-663,-1129,1472,-56,323,-604
520,908,1097,-4267,-619,-963,1466,-56,323,-604
521,1200,853,-4164,-826,-1226,1463,-56,323,-604
522,1026,1220,-4124,-680,-1195,1523,-56,323,-604
523,1108,1109,-4045,-804,-1139,1540,-56,323,-604
524,1154,1232,-3941,-840,-1275,1567,-56,342,-597
525,1052,1326,-3853,-944,-1147,1503,-60,342,-597
526,1135,1464,-3635,-1005,-1078,1433,-60,342,-597
527,1243,1641,-3479,-1017,-1080,1362,-60,342,-597
528,1284,1825,-3426,-858,-1003,1269,-60,342,-597
529,1198,1956,-3340,-661,-814,1146,-60,342,-597
530,1258,2011,-3361,-556,-771,992,-60,342,-597
531,1200,2035,-3353,-434,-766,816,-60,342,-597
532,1278,1994,-3347,-386,-690,672,-60,342,-597
533,1305,2022,-3379,-297,-729,545,-60,342,-597
534,1330,1945,-3459,-238,-683,417,-60,342,-597
535,1251,2114,-3540,-163,-558,216,-60,342,-597
536,1230,2038,-3690,-162,-514,57,-60,342,-597
537,1295,2057,-3839,-159,-528,-133,-60,342,-597
538,1311,1933,-3868,-248,-565,-270,-60,342,-597
539,1424,2038,-3882,-346,-715,-439,-60,342,-597
540,1355,2082,-3901,-427,-778,-637,-64,345,-599
541,1381,2144,-3762,-461,-802,-851,-64,345,-599
542,1352,2289,-3689,-436,-755,-1046,-64,345,-599
543,1315,2253,-3667,-346,-731,-1304,-64,345,-599
544,1354,2212,-3606,-221,-741,-1568,-64,345,-599
545,1330,2177,-3575,-128,-691,-1778,-64,345,-599
546,1267,2131,-3563,-104,-658,-1988,-64,345,-599
547,1305,2061,-3453,-11,-555,-2161,-64,345,-599
548,1216,2092,-3422,115,-346,-2323,-64,345,-599
549,1260,2069,-3340,291,-156,-2479,-64,345,-599
550,1294,2044,-3343,488,36,-2600,-64,345,-599
551,1330,2106,-3372,635,307,-2711,-64,345,-599
552,1491,2324,-3508,700,639,-2829,-64,345,-599
553,1445,2629,-3726,719,1048,-3072,-64,345,-599
554,1695,2718,-3766,773,1254,-3358,-64,345,-599
555,1791,2857,-3896,870,1330,-3671,-64,345,-599
556,1904,2833,-3995,959,1315,-4038,-93,332,-598
557,1884,2767,-4046,989,1293,-4414,-93,332,-598
558,1766,2527,-3973,997,1314,-4835,-93,332,-598
559,1715,2391,-3879,996,1380,-5228,-93,332,-598
560,1630,2173,-3726,1231,1445,-5523,-93,332,-598
561,1620,1752,-3582,1533,1477,-5684,-93,332,-598
562,1568,1538,-3508,1669,1386,-5831,-93,332,-598
563,1431,1188,-3598,1713,1454,-5920,-93,332,-598
564,1282,575,-3699,1368,1627,-5920,-93,332,-598
565,1161,534,-3580,1338,1642,-5865,-93,332,-598
566,1008,282,-3496,1357,1785,-5709,-93,332,-598
567,928,-78,-3494,1311,1962,-5497,-93,332,-598
568,728,-202,-3513,1328,2152,-5295,-93,332,-598
569,811,-476,-3499,1240,2337,-5007,-93,332,-598
570,615,-609,-3638,1099,2612,-4701,-93,332,-598
571,671,-729,-3742,1008,2829,-4336,-93,332,-598
572,479,-759,-3694,795,3257,-4013,-93,332,-598
573,612,-759,-3660,646,3379,-3678,-93,332,-598
574,296,-839,-3712,583,3743,-3356,-93,332,-598
575,521,-841,-3666,585,3986,-3003,-93,332,-598
576,422,-758,-3916,684,4374,-2647,-93,332,-598
577,561,-697,-4076,863,4575,-2314,-93,332,-598
578,670,-613,-4475,1006,4563,-2002,-93,332,-598
579,704,-594,-4967,1030,4353,-1789,-93,332,-598
580,904,-551,-5228,857,3947,-1610,-93,332,-598
581,895,-476,-5474,646,3535,-1458,-93,332,-598
582,1054,-361,-5463,504,3158,-1330,-93,332,-598
583,949,-225,-5507,396,2840,-1187,-93,332,-598
584,1006,-200,-5404,353,2570,-1042,-93,332,-598
585,1023,-183,-5351,331,2337,-899,-93,332,-598
586,1018,-163,-5309,297,2137,-753,-93,332,-598
587,1064,-173,-5219,231,1962,-610,-72,290,-633
588,1004,-137,-5161,195,1797,-471,-72,290,-633
589,1044,-100,-5116,220,1602,-357,-72,290,-633
590,1086,-62,-5107,232,1369,-254,-72,290,-633
591,1110,-57,-4987,205,1195,-157,-72,290,-633
592,1070,-43,-4903,169,1047,-48,-72,290,-633
593,1122,-33,-4797,169,942,54,-72,290,-633
594,1133,58,-4729,164,863,155,-72,290,-633
595,1157,76,-4635,167,777,227,-72,290,-633
596,1187,142,-4493,185,691,292,-72,290,-633
597,1208,194,-4474,224,603,343,-72,290,-633
598,1186,193,-4364,280,539,406,-72,290,-633
599,1204,191,-4366,326,468,458,-72,290,-633
600,1193,215,-4320,334,439,512,-72,290,-633
601,1230,203,-4283,354,413,551,-72,290,-633
602,1258,242,-4214,393,378,614,-72,290,-633
603,1277,327,-4252,435,358,656,-54,278,-628
604,1288,338,-4257,471,313,690,-54,278,-628
605,1380,337,-4282,442,249,708,-54,278,-628
606,1392,305,-4257,382,120,721,-54,278,-628
607,1333,326,-4287,334,61,743,-54,278,-628
608,1318,368,-4272,295,-11,781,-54,278,-628
609,1384,389,-4310,306,-101,812,-54,278,-628
610,1262,422,-4353,260,-134,847,-54,278,-628
611,1322,424,-4287,219,-192,885,-54,278,-628
612,1362,433,-4301,161,-244,923,-54,278,-628
613,1323,441,-4365,138,-328,958,-54,278,-628
614,1347,458,-4323,192,-402,1015,-54,278,-628
615,1348,425,-4356,198,-476,1072,-54,278,-628
616,1368,378,-4380,191,-591,1141,-54,278,-628
617,1340,371,-4451,168,-690,1208,-54,278,-628
618,1293,364,-4440,94,-726,1298,-54,278,-628
619,1390,440,-4337,90,-789,1381,-56,277,-640
620,1284,459,-4341,81,-860,1454,-56,277,-640
621,1352,412,-4268,79,-853,1505,-56,277,-640
622,1284,410,-4322,132,-834,1586,-56,277,-640
623,1316,354,-4328,132,-835,1665,-56,277,-640
624,1272,415,-4331,89,-777,1710,-56,277,-640
625,1420,554,-4264,125,-797,1763,-56,277,-640
626,1341,596,-4288,138,-794,1828,-56,277,-640
627,1373,611,-4240,186,-848,1851,-56,277,-640
628,1356,677,-4263,207,-848,1870,-56,277,-640
629,1361,677,-4277,202,-785,1879,-56,277,-640
630,1360,657,-4220,151,-730,1889,-56,277,-640
631,1380,611,-4249,111,-722,1884,-56,277,-640
632,1368,583,-4230,44,-686,1906,-56,277,-640
633,1357,598,-4218,13,-624,1923,-56,277,-640
634,1412,624,-4171,-2,-595,1947,-56,277,-640
635,1411,685,-4102,-36,-554,1943,-49,271,-641
636,1443,790,-4088,-49,-535,1944,-49,271,-641
637,1400,876,-4073,-67,-494,1892,-49,271,-641
638,1414,836,-4184,-79,-432,1823,-49,271,-641
639,1384,785,-4299,-124,-349,1768,-49,271,-641
640,1430,622,-4239,-206,-374,1715,-49,271,-641
641,1324,728,-4160,-76,-427,1716,-49,271,-641
642,1333,518,-4224,-116,-431,1729,-49,271,-641
643,1272,435,-4224,-91,-399,1774,-49,271,-641
644,1267,309,-4193,-128,-381,1833,-49,271,-641
645,1241,232,-4206,-285,-359,1887,-49,271,-641
646,1326,309,-4193,-381,-374,1952,-49,271,-641
647,1308,414,-4171,-459,-354,1994,-49,271,-641
648,1311,490,-4128,-496,-335,2046,-49,271,-641
649,1310,498,-4124,-491,-335,2084,-49,271,-641
650,1321,440,-4168,-471,-319,2107,-49,271,-641
651,1301,390,-4198,-528,-310,2142,-40,266,-632
652,1265,380,-4178,-602,-256,2195,-40,266,-632
653,1293,465,-4109,-650,-207,2253,-40,266,-632
654,1340,543,-4087,-634,-133,2297,-40,266,-632
655,1359,686,-3975,-595,-67,2329,-40,266,-632
656,1360,752,-3966,-568,-16,2318,-40,266,-632
657,1345,808,-3901,-530,62,2278,-40,266,-632
658,1426,703,-3936,-480,66,2216,-40,266,-632
659,1465,589,-4031,-508,-66,2177,-40,266,-632
660,1408,498,-4214,-567,-172,2183,-40,266,-632
661,1395,463,-4232,-614,-239,2225,-40,266,-632
662,1305,461,-4314,-674,-247,2251,-40,266,-632
663,1350,485,-4210,-741,-247,2295,-40,266,-632
664,1356,552,-4124,-805,-221,2326,-40,266,-632
665,1333,638,-4042,-818,-190,2340,-40,266,-632
666,1367,686,-3974,-765,-125,2308,-40,266,-632
667,1384,632,-3878,-681,-18,2310,-22,281,-634
668,1499,619,-3820,-624,-45,2301,-22,281,-634
669,1281,527,-3920,-682,-48,2309,-22,281,-634
670,1360,418,-3834,-800,-28,2343,-22,281,-634
671,1311,439,-3860,-791,-37,2364,-22,281,-634
672,1332,452,-3805,-805,1,2384,-22,281,-634
673,1369,329,-3848,-852,-82,2396,-22,281,-634
674,1479,435,-3747,-891,-202,2409,-22,281,-634
675,1270,473,-3914,-932,-196,2432,-22,281,-634
676,1265,401,-3975,-1086,-225,2458,-22,281,-634
677,1384,483,-3866,-1159,-260,2466,-22,281,-634
678,1292,556,-3849,-1233,-173,2476,-22,281,-634
679,1474,690,-3755,-1327,-185,2491,-22,281,-634
680,1448,1054,-3798,-1283,-214,2403,-22,281,-634
681,1583,1194,-3709,-1132,-154,2322,-22,281,-634
682,1617,1320,-3713,-1013,-213,2189,-22,281,-634
683,1568,1330,-3806,-872,-215,2046,4,284,-626
684,1659,1309,-3791,-819,-277,1907,4,284,-626
685,1619,1228,-3853,-784,-332,1769,4,284,-626
686,1650,1060,-3853,-749,-353,1647,4,284,-626
687,1466,1008,-3981,-628,-277,1592,4,284,-626
688,1566,750,-4011,-726,-306,1565,4,284,-626
689,1536,873,-4116,-682,-409,1528,4,284,-626
690,1543,810,-4151,-731,-375,1537,4,284,-626
691,1624,857,-4124,-759,-413,1526,4,284,-626
692,1508,892,-4076,-812,-483,1513,4,284,-626
693,1624,897,-4074,-842,-599,1503,4,284,-626
694,1633,968,-3984,-848,-568,1479,4,284,-626
695,1585,1028,-3875,-864,-542,1485,4,284,-626
696,1507,1179,-3821,-798,-604,1439,4,284,-626
697,1605,1270,-3719,-629,-507,1399,4,284,-626
698,1639,1296,-3744,-606,-573,1318,4,284,-626
699,1545,1482,-3770,-521,-618,1160,14,289,-613
700,1711,1467,-3760,-437,-613,1011,14,289,-613
701,1710,1553,-3788,-419,-669,817,14,289,-613
702,1586,1586,-3869,-364,-709,619,14,289,-613
703,1782,1570,-3916,-330,-761,437,14,289,-613
704,1738,1617,-3991,-313,-781,271,14,289,-613
705,1756,1661,-4158,-342,-826,115,14,289,-613
706,1831,1704,-4377,-425,-958,-96,14,289,-613
707,1880,1777,-4444,-494,-1029,-311,14,289,-613
708,1909,1860,-4532,-494,-1172,-535,14,289,-613
709,1971,1913,-4584,-519,-1363,-781,14,289,-613
710,2085,2070,-4628,-599,-1596,-1035,14,289,-613
711,2091,2285,-4639,-718,-1708,-1299,14,289,-613
712,2233,2520,-4489,-875,-1816,-1617,14,289,-613
713,2203,2792,-4290,-1023,-1918,-2078,14,289,-613
714,2254,3154,-3724,-921,-2002,-2571,14,289,-613
715,2170,3391,-3478,-510,-2001,-3060,-21,314,-611
716,2190,3375,-3288,-49,-2036,-3560,-21,314,-611
717,2214,3236,-3269,292,-2060,-4084,-21,314,-611
718,2120,3177,-3263,499,-2092,-4610,-21,314,-611
719,2119,3056,-3115,592,-2090,-5106,-21,314,-611
720,2097,2923,-2836,754,-2095,-5600,-21,314,-611
721,1985,2608,-2520,963,-2087,-6031,-21,314,-611
722,1872,2310,-2207,1179,-2082,-6426,-21,314,-611
723,1706,2014,-1925,1413,-1960,-6742,-21,314,-611
724,1527,1775,-1722,1934,-1862,-6977,-21,314,-611
725,1381,1262,-1677,2375,-1563,-7076,-21,314,-611
726,1495,714,-1763,2624,-1495,-7088,-21,314,-611
727,903,-141,-2351,2186,-956,-6965,-21,314,-611
728,737,-264,-2432,2270,-656,-6827,-21,314,-611
729,616,-728,-2649,2373,-256,-6454,-21,314,-611
730,476,-1069,-3004,2353,142,-6049,-113,287,-630
731,446,-1234,-3197,2290,329,-5629,-113,287,-630
732,321,-1512,-3787,2002,410,-5189,-113,287,-630
733,70,-1618,-4125,1744,695,-4701,-113,287,-630
734,190,-1723,-4331,1473,859,-4208,-113,287,-630
735,188,-1696,-4577,1128,943,-3728,-113,287,-630
736,323,-1497,-4850,798,1035,-3297,-113,287,-630
737,179,-1268,-5073,607,1026,-2934,-113,287,-630
738,214,-1107,-5233,543,1030,-2608,-113,287,-630
739,332,-979,-5375,515,899,-2319,-113,287,-630
740,222,-861,-5449,473,871,-2048,-113,287,-630
741,307,-779,-5414,393,863,-1796,-113,287,-630
742,268,-662,-5351,321,886,-1555,-113,287,-630
743,400,-590,-5176,296,825,-1338,-113,287,-630
744,432,-399,-5033,307,818,-1146,-113,287,-630
745,504,-318,-4885,347,792,-984,-113,287,-630
746,575,-225,-4797,384,760,-836,-124,256,-633
747,615,-130,-4663,453,783,-710,-124,256,-633
748,692,-47,-4592,516,803,-616,-124,256,-633
749,740,3,-4465,572,830,-528,-124,256,-633
750,733,74,-4417,624,897,-457,-124,256,-633
751,801,72,-4388,674,996,-380,-124,256,-633
752,832,58,-4419,720,1079,-314,-124,256,-633
753,867,98,-4461,761,1155,-253,-124,256,-633
754,914,101,-4493,804,1241,-205,-124,256,-633
755,991,71,-4471,799,1285,-166,-124,256,-633
756,948,65,-4503,754,1325,-130,-124,256,-633
757,978,31,-4523,734,1365,-86,-124,256,-633
758,979,-7,-4530,690,1405,-43,-124,256,-633
759,972,-57,-4563,639,1462,9,-124,256,-633
760,969,-85,-4557,592,1502,60,-124,256,-633
761,967,-28,-4568,552,1553,116,-124,256,-633
762,970,-14,-4554,511,1618,161,-109,247,-647
763,974,17,-4609,492,1645,208,-109,247,-647
764,1038,24,-4588,487,1629,228,-109,247,-647
765,1061,28,-4653,464,1536,246,-109,247,-647
766,1062,18,-4688,433,1481,270,-109,247,-647
767,1073,15,-4620,400,1412,292,-109,247,-647
768,1027,-16,-4599,342,1336,323,-109,247,-647
769,1051,6,-4525,296,1292,361,-109,247,-647
770,1035,-34,-4406,256,1265,403,-109,247,-647
771,1019,-25,-4342,229,1247,467,-109,247,-647
772,1030,-24,-4254,211,1250,540,-109,247,-647
773,1040,36,-4156,220,1294,619,-109,247,-647
774,1012,53,-4086,267,1371,699,-109,247,-647
775,1058,84,-4094,324,1495,775,-109,247,-647
776,1101,133,-4141,403,1522,842,-109,247,-647
777,1157,174,-4137,536,1465,895,-109,247,-647
778,1130,258,-4330,637,1488,950,-75,232,-654
779,1275,224,-4388,703,1399,966,-75,232,-654
780,1318,279,-4443,754,1265,973,-75,232,-654
781,1282,331,-4539,735,1231,970,-75,232,-654
782,1407,325,-4516,740,1097,962,-75,232,-654
783,1382,336,-4539,764,960,942,-75,232,-654
784,1385,361,-4607,709,938,919,-75,232,-654
785,1432,363,-4596,668,812,893,-75,232,-654
786,1414,330,-4628,605,676,856,-75,232,-654
787,1449,358,-4615,556,518,819,-75,232,-654
788,1371,368,-4599,469,448,790,-75,232,-654
789,1394,280,-4563,442,335,772,-75,232,-654
790,1338,322,-4507,427,240,761,-75,232,-654
791,1299,261,-4494,369,223,747,-75,232,-654
792,1238,159,-4475,281,231,759,-75,232,-654
793,1340,189,-4390,191,279,765,-75,232,-654
794,1296,157,-4385,213,206,789,-50,213,-653
795,1255,44,-4304,200,176,825,-50,213,-653
796,1237,-13,-4324,209,203,895,-50,213,-653
797,1210,-75,-4317,191,226,977,-50,213,-653
798,1275,-61,-4376,127,244,1061,-50,213,-653
799,1178,-88,-4411,75,227,1127,-50,213,-653
800,1231,-53,-4478,-1,292,1209,-50,213,-653
801,1233,-63,-4494,-8,223,1264,-50,213,-653
802,1229,-65,-4541,-61,164,1309,-50,213,-653
803,1292,-15,-4543,-84,91,1370,-50,213,-653
804,1287,34,-4540,-130,57,1414,-50,213,-653
805,1296,80,-4524,-168,14,1442,-50,213,-653
806,1374,170,-4461,-191,-25,1448,-50,213,-653
807,1463,286,-4352,-157,-107,1440,-50,213,-653
808,1367,305,-4357,-154,-156,1412,-50,213,-653
809,1453,356,-4344,-204,-148,1376,-50,213,-653
810,1485,370,-4278,-188,-247,1334,-44,217,-659
811,1517,393,-4198,-204,-307,1280,-44,217,-659
812,1515,436,-4147,-144,-342,1228,-44,217,-659
813,1336,259,-4152,-59,-280,1225,-44,217,-659
814,1339,235,-4111,-109,-229,1202,-44,217,-659
815,1373,174,-4099,-108,-226,1199,-44,217,-659
816,1314,97,-4160,-133,-214,1213,-44,217,-659
817,1293,77,-4187,-148,-176,1239,-44,217,-659
818,1311,89,-4247,-138,-179,1259,-44,217,-659
819,1304,46,-4323,-187,-224,1284,-44,217,-659
820,1274,97,-4326,-250,-257,1297,-44,217,-659
821,1257,28,-4291,-269,-289,1309,-44,217,-659
822,1220,-74,-4313,-245,-283,1355,-44,217,-659
823,1229,-255,-4306,-245,-306,1435,-44,217,-659
824,1181,-353,-4355,-282,-313,1546,-44,217,-659
825,1116,-447,-4451,-366,-303,1677,-44,217,-659
826,1165,-492,-4470,-444,-300,1831,-32,213,-661
827,1203,-461,-4459,-549,-322,1987,-32,213,-661
828,1218,-364,-4389,-649,-329,2100,-32,213,-661
829,1270,-112,-4291,-697,-331,2185,-32,213,-661
830,1304,82,-4251,-679,-364,2215,-32,213,-661
831,1358,210,-4147,-617,-410,2219,-32,213,-661
832,1418,323,-4072,-565,-502,2191,-32,213,-661
833,1421,462,-4016,-524,-551,2121,-32,213,-661
834,1475,564,-3916,-468,-543,2042,-32,213,-661
835,1420,679,-3832,-408,-530,1939,-32,213,-661
836,1402,677,-3760,-308,-458,1834,-32,213,-661
837,1376,595,-3795,-199,-385,1767,-32,213,-661
838,1383,483,-3839,-164,-310,1702,-32,213,-661
839,1386,305,-3837,-164,-284,1667,-32,213,-661
840,1337,282,-3903,-183,-274,1644,-32,213,-661
841,1385,209,-3919,-214,-277,1632,-32,213,-661
842,1269,206,-4007,-246,-227,1619,-24,216,-648
843,1234,29,-4040,-295,-211,1622,-24,216,-648
844,1309,-92,-4095,-348,-227,1665,-24,216,-648
845,1202,-211,-4123,-397,-212,1755,-24,216,-648
846,1154,-93,-4114,-414,-242,1808,-24,216,-648
847,1106,-256,-4124,-479,-204,1886,-24,216,-648
848,1307,-253,-4161,-615,-272,1945,-24,216,-648
849,1129,-136,-4178,-663,-137,2061,-24,216,-648
850,1252,-17,-4241,-818,-161,2087,-24,216,-648
851,1149,88,-4221,-824,-128,2112,-24,216,-648
852,1248,271,-4150,-752,-44,2130,-24,216,-648
853,1369,412,-4063,-882,-176,2058,-24,216,-648
854,1300,508,-4038,-782,-104,2012,-24,216,-648
855,1501,545,-3867,-831,-80,1964,-24,216,-648
856,1417,621,-3930,-785,-113,1890,-24,216,-648
857,1422,683,-3967,-701,-137,1789,-24,216,-648
858,1446,710,-3938,-562,-162,1708,-15,231,-650
859,1456,616,-4041,-569,-263,1593,-15,231,-650
860,1440,530,-3944,-523,-380,1524,-15,231,-650
861,1402,553,-3904,-513,-377,1456,-15,231,-650
862,1324,514,-3851,-533,-407,1389,-15,231,-650
863,1312,569,-3793,-476,-424,1335,-15,231,-650
864,1371,444,-3715,-438,-418,1303,-15,231,-650
865,1419,471,-3697,-411,-381,1289,-15,231,-650
866,1287,422,-3684,-376,-308,1274,-15,231,-650
867,1259,460,-3730,-313,-226,1252,-15,231,-650
868,1258,421,-3698,-273,-156,1255,-15,231,-650
869,1445,345,-3753,-363,-204,1215,-15,231,-650
870,1387,459,-3791,-321,-107,1208,-15,231,-650
871,1400,518,-3784,-333,-19,1181,-15,231,-650
872,1345,613,-3806,-324,2,1155,-15,231,-650
873,1399,649,-3803,-297,-53,1121,-15,231,-650
874,1408,774,-3896,-209,30,1081,-2,230,-648
875,1526,689,-3903,-248,-10,1018,-2,230,-648
876,1384,807,-4010,-244,-112,938,-2,230,-648
877,1347,882,-3990,-137,-78,873,-2,230,-648
878,1468,758,-4058,-216,-153,781,-2,230,-648
879,1427,841,-4084,-218,-233,706,-2,230,-648
880,1486,840,-4087,-252,-270,631,-2,230,-648
881,1513,862,-4107,-281,-391,544,-2,230,-648
882,1442,903,-4104,-250,-448,482,-2,230,-648
883,1560,955,-4070,-226,-596,400,-2,230,-648
884,1373,1041,-4148,-43,-570,327,-2,230,-648
885,1518,917,-4105,-47,-717,238,-2,230,-648
886,1493,955,-4075,28,-866,139,-2,230,-648
887,1426,853,-4036,64,-915,76,-2,230,-648
888,1450,836,-4035,36,-1006,-2,-2,230,-648
889,1456,847,-4067,-19,-1064,-74,-2,230,-648
890,1481,911,-4066,-79,-1152,-189,-9,225,-642
891,1490,972,-4128,-117,-1298,-320,-9,225,-642
892,1437,1021,-4294,-82,-1361,-450,-9,225,-642
893,1493,1021,-4365,-79,-1443,-589,-9,225,-642
894,1556,1079,-4575,-197,-1562,-749,-9,225,-642
895,1682,1233,-4958,-376,-1818,-999,-9,225,-642
896,1809,1366,-5187,-618,-2137,-1278,-9,225,-642
897,1841,1502,-5199,-802,-2516,-1590,-9,225,-642
898,1911,1593,-5029,-879,-2904,-1912,-9,225,-642
899,1863,1669,-4646,-854,-3208,-2201,-9,225,-642
900,1800,1735,-4256,-753,-3473,-2478,-9,225,-642
901,1703,1695,-3987,-617,-3539,-2755,-9,225,-642
902,1617,1679,-3686,-456,-3527,-3004,-9,225,-642
903,1484,1635,-3412,-304,-3345,-3242,-9,225,-642
904,1385,1555,-3184,-88,-3201,-3476,-9,225,-642
905,1398,1449,-2972,206,-3093,-3697,-9,225,-642
906,1323,1374,-2869,487,-2958,-3880,-86,249,-645
907,1283,1196,-2821,657,-2853,-4081,-86,249,-645
908,1253,1064,-2792,703,-2712,-4271,-86,249,-645
909,1200,972,-2739,692,-2589,-4453,-86,249,-645
910,1188,978,-2791,872,-2550,-4594,-86,249,-645
911,1100,796,-3015,1110,-2483,-4727,-86,249,-645
912,1041,575,-3365,1229,-2397,-4832,-86,249,-645
913,948,308,-3729,1170,-2299,-4912,-86,249,-645
914,999,110,-3847,990,-2224,-4972,-86,249,-645
915,790,-326,-4033,518,-1928,-4961,-86,249,-645
916,684,-370,-3985,399,-1807,-4886,-86,249,-645
917,509,-373,-3952,309,-1500,-4769,-86,249,-645
918,436,-473,-3930,170,-1082,-4609,-86,249,-645
919,339,-587,-4028,109,-669,-4424,-86,249,-645
920,201,-730,-4163,-20,-210,-4218,-86,249,-645
921,183,-865,-4216,-154,163,-3978,-86,249,-645
922,123,-939,-4375,-218,481,-3738,-160,220,-644
923,63,-992,-4506,-261,773,-3462,-160,220,-644
924,77,-1065,-4647,-263,947,-3189,-160,220,-644
925,81,-1127,-4766,-263,1025,-2904,-160,220,-644
926,68,-1082,-4903,-286,1104,-2610,-160,220,-644
927,115,-1069,-4925,-308,1122,-2355,-160,220,-644
928,128,-1025,-4970,-365,1123,-2093,-160,220,-644
929,119,-945,-4971,-428,1132,-1859,-160,220,-644
930,174,-857,-4865,-452,1126,-1647,-160,220,-644
931,217,-770,-4785,-413,1139,-1432,-160,220,-644
932,311,-643,-4620,-325,1129,-1260,-160,220,-644
933,276,-522,-4522,-249,1172,-1100,-160,220,-644
934,354,-455,-4477,-155,1250,-962,-160,220,-644
935,408,-345,-4399,-96,1296,-853,-160,220,-644
936,437,-319,-4353,-38,1386,-759,-160,220,-644
937,498,-290,-4301,16,1441,-683,-149,217,-646
938,558,-302,-4306,105,1460,-622,-149,217,-646
939,527,-272,-4363,278,1468,-552,-149,217,-646
940,591,-326,-4518,417,1482,-476,-149,217,-646
941,612,-319,-4791,441,1478,-419,-149,217,-646
942,690,-245,-4912,348,1372,-401,-149,217,-646
943,767,-8,-5010,264,1242,-418,-149,217,-646
944,831,90,-5039,236,1124,-438,-149,217,-646
945,803,107,-4999,253,961,-463,-149,217,-646
946,834,106,-4980,297,840,-477,-149,217,-646
947,764,9,-5004,285,742,-477,-149,217,-646
948,721,-103,-4928,228,695,-455,-149,217,-646
949,685,-218,-4929,159,678,-410,-149,217,-646
950,604,-296,-4882,109,654,-349,-149,217,-646
951,593,-318,-4776,86,658,-261,-149,217,-646
952,610,-349,-4677,82,657,-161,-149,217,-646
953,572,-329,-4595,72,647,-82,-142,216,-656
954,583,-368,-4550,40,656,14,-142,216,-656
955,580,-359,-4501,11,707,101,-142,216,-656
956,614,-284,-4441,6,740,182,-142,216,-656
957,624,-218,-4392,18,755,256,-142,216,-656
958,687,-140,-4379,58,751,308,-142,216,-656
959,713,-74,-4375,92,731,345,-142,216,-656
960,737,-44,-4348,92,729,381,-142,216,-656
961,753,-39,-4363,88,707,401,-142,216,-656
962,795,-8,-4338,85,687,430,-142,216,-656
963,777,14,-4343,86,667,451,-142,216,-656
964,797,63,-4372,97,672,482,-142,216,-656
965,819,60,-4317,116,645,495,-142,216,-656
966,824,109,-4302,129,615,517,-142,216,-656
967,851,117,-4311,164,613,541,-142,216,-656
968,843,180,-4300,197,614,553,-142,216,-656
969,832,156,-4263,199,653,569,-142,216,-656
970,875,188,-4256,231,641,570,-117,205,-656
971,860,172,-4296,283,640,582,-117,205,-656
972,876,233,-4249,350,615,595,-117,205,-656
973,872,160,-4291,389,603,605,-117,205,-656
974,849,102,-4301,371,603,619,-117,205,-656
975,849,76,-4351,369,543,638,-117,205,-656
976,815,-16,-4334,340,511,668,-117,205,-656
977,775,-60,-4355,313,491,712,-117,205,-656
978,831,-89,-4325,289,477,764,-117,205,-656
979,803,-110,-4369,249,494,835,-117,205,-656
980,805,-153,-4411,264,462,890,-117,205,-656
981,795,-204,-4420,277,356,947,-117,205,-656
982,792,-230,-4519,251,346,1032,-117,205,-656
983,793,-265,-4520,215,291,1113,-117,205,-656
984,765,-276,-4582,133,299,1199,-117,205,-656
985,790,-231,-4633,59,272,1278,-117,205,-656
986,795,-203,-4579,-10,233,1334,-100,194,-652
987,849,-160,-4596,-20,189,1402,-100,194,-652
988,818,-202,-4628,-56,190,1467,-100,194,-652
989,898,-113,-4509,-82,157,1511,-100,194,-652
990,940,-58,-4481,-85,90,1560,-100,194,-652
991,899,49,-4439,-74,109,1594,-100,194,-652
992,902,53,-4404,-27,101,1599,-100,194,-652
993,965,78,-4358,7,115,1614,-100,194,-652
994,982,52,-4296,10,121,1616,-100,194,-652
995,954,100,-4259,-6,119,1616,-100,194,-652
996,979,73,-4229,-12,171,1627,-100,194,-652
997,972,242,-4206,146,159,1621,-100,194,-652
998,1001,137,-4236,89,217,1606,-100,194,-652
999,1063,160,-4320,99,243,1606,-100,194,-652
1000,1020,81,-4358,100,274,1600,-100,194,-652
1001,1064,76,-4316,48,286,1596,-100,194,-652
1002,1112,88,-4322,22,221,1583,-91,203,-660
1003,1053,123,-4312,5,179,1567,-91,203,-660
1004,1042,128,-4294,-4,187,1556,-91,203,-660
1005,1046,145,-4295,-29,188,1537,-91,203,-660
1006,1024,83,-4236,-56,197,1515,-91,203,-660
1007,1033,8,-4232,-100,203,1513,-91,203,-660
1008,996,-59,-4177,-150,194,1539,-91,203,-660
1009,962,-81,-4163,-194,233,1568,-91,203,-660
1010,1004,-110,-4178,-228,295,1603,-91,203,-660
1011,983,-52,-4170,-262,327,1637,-91,203,-660
1012,1010,13,-4129,-297,366,1638,-91,203,-660
1013,1015,10,-4058,-299,384,1651,-91,203,-660
1014,975,55,-4100,-295,412,1654,-91,203,-660
1015,975,-40,-4088,-273,450,1665,-91,203,-660
1016,987,-129,-4096,-273,481,1699,-91,203,-660
1017,973,-212,-4140,-292,505,1749,-91,203,-660
1018,965,-113,-4115,-297,544,1792,-69,199,-662
1019,999,-18,-4144,-277,579,1825,-69,199,-662
1020,1038,63,-4087,-248,601,1840,-69,199,-662
1021,1091,179,-4087,-199,604,1824,-69,199,-662
1022,1095,209,-4153,-176,618,1796,-69,199,-662
1023,1151,166,-4134,-165,555,1753,-69,199,-662
1024,1148,191,-4125,-180,483,1719,-69,199,-662
1025,1145,200,-4104,-149,454,1696,-69,199,-662
1026,1079,284,-4126,-93,517,1686,-69,199,-662
1027,1138,288,-4208,-132,525,1647,-69,199,-662
1028,1247,246,-4159,-183,514,1621,-69,199,-662
1029,1279,390,-4149,-256,543,1577,-69,199,-662
1030,1163,548,-4139,-265,549,1509,-69,199,-662
1031,1236,481,-4074,-219,619,1454,-69,199,-662
1032,1297,568,-4022,-202,539,1337,-69,199,-662
1033,1233,531,-4011,-134,565,1296,-69,199,-662
1034,1333,590,-3987,-174,503,1194,-42,198,-655
1035,1158,404,-3962,-52,558,1158,-42,198,-655
1036,1235,253,-3980,-130,525,1132,-42,198,-655
1037,871,214,-4115,17,621,1145,-42,198,-655
1038,1004,-89,-4049,-39,629,1179,-42,198,-655
1039,1186,-56,-4085,-112,471,1198,-42,198,-655
1040,1095,-55,-4081,-93,484,1249,-42,198,-655
1041,1189,-76,-4147,-196,352,1277,-42,198,-655
1042,1139,66,-4211,-233,322,1310,-42,198,-655
1043,1047,140,-4198,-252,325,1317,-42,198,-655
1044,1085,90,-4157,-247,288,1315,-42,198,-655
1045,1209,105,-4223,-206,206,1281,-42,198,-655
1046,1182,13,-4241,-151,191,1306,-42,198,-655
1047,1153,-55,-4265,-208,153,1324,-42,198,-655
1048,1260,-138,-4225,-332,73,1361,-42,198,-655
1049,989,115,-4281,-329,97,1378,-42,198,-655
1050,1096,40,-4223,-378,69,1390,-32,206,-663
1051,1192,173,-4171,-368,-30,1362,-32,206,-663
1052,1198,319,-4141,-240,-34,1333,-32,206,-663
1053,1231,375,-4064,-207,-73,1283,-32,206,-663
1054,1352,479,-4057,-153,-121,1202,-32,206,-663
1055,1388,501,-3990,-122,-116,1113,-32,206,-663
1056,1341,574,-3974,-141,-114,1026,-32,206,-663
1057,1341,586,-3989,-137,-92,921,-32,206,-663
1058,1408,552,-3960,-149,-131,813,-32,206,-663
1059,1381,586,-4035,-107,-140,713,-32,206,-663
1060,1455,526,-4052,-133,-206,595,-32,206,-663
1061,1428,565,-4089,-88,-171,519,-32,206,-663
1062,1333,478,-4115,-163,-209,419,-32,206,-663
1063,1455,573,-4091,-98,-257,333,-32,206,-663
1064,1402,598,-4126,-90,-230,241,-32,206,-663
1065,1380,582,-4158,-64,-253,150,-32,206,-663
1066,1450,554,-4171,-95,-310,62,-23,199,-661
1067,1399,646,-4261,-93,-349,-46,-23,199,-661
1068,1399,650,-4241,-89,-408,-157,-23,199,-661
1069,1407,690,-4184,-53,-486,-285,-23,199,-661
1070,1391,679,-4221,-19,-529,-409,-23,199,-661
1071,1389,639,-4251,0,-582,-538,-23,199,-661
1072,1373,602,-4205,-16,-621,-629,-23,199,-661
1073,1337,652,-4178,-54,-678,-744,-23,199,-661
1074,1404,680,-4160,-54,-744,-875,-23,199,-661
1075,1422,731,-4274,-60,-780,-1008,-23,199,-661
1076,1444,810,-4430,-152,-905,-1186,-23,199,-661
1077,1541,839,-4455,-302,-1061,-1393,-23,199,-661
1078,1580,972,-4519,-368,-1220,-1615,-23,199,-661
1079,1557,1076,-4517,-345,-1340,-1834,-23,199,-661
1080,1684,1116,-4499,-329,-1563,-2095,-23,199,-661
1081,1736,1232,-4494,-380,-1765,-2372,-23,199,-661
1082,1790,1330,-4453,-470,-1852,-2695,-52,202,-653
1083,1715,1519,-4280,-497,-1834,-3008,-52,202,-653
1084,1785,1634,-4067,-499,-1812,-3342,-52,202,-653
1085,1850,1699,-3871,-486,-1845,-3730,-52,202,-653
1086,1814,1795,-3750,-442,-1846,-4116,-52,202,-653
1087,1884,1764,-3718,-474,-1852,-4530,-52,202,-653
1088,1916,1740,-3615,-621,-1868,-4947,-52,202,-653
1089,1943,1663,-3428,-791,-1936,-5328,-52,202,-653
1090,1769,1648,-3295,-727,-1839,-5638,-52,202,-653
1091,1696,1469,-3153,-531,-1691,-5892,-52,202,-653
1092,1629,1248,-3064,-236,-1605,-6059,-52,202,-653
1093,1393,757,-3070,-73,-1438,-6148,-52,202,-653
1094,1164,325,-3153,8,-1151,-6146,-52,202,-653
1095,1059,-38,-3220,36,-864,-6139,-52,202,-653
1096,803,-673,-3470,-258,-368,-5949,-52,202,-653
1097,477,-837,-3631,-204,25,-5690,-52,202,-653
1098,405,-1121,-3810,-166,460,-5293,-127,215,-652
1099,278,-1464,-3968,-202,729,-4889,-127,215,-652
1100,195,-1551,-4231,-140,957,-4466,-127,215,-652
1101,70,-1729,-4482,-159,1102,-4056,-127,215,-652
1102,198,-1772,-4597,-204,1098,-3624,-127,215,-652
1103,78,-1812,-4789,-228,1013,-3178,-127,215,-652
1104,45,-1775,-4806,-203,959,-2687,-127,215,-652
1105,59,-1779,-4796,-215,804,-2252,-127,215,-652
1106,153,-1665,-4777,-190,725,-1816,-127,215,-652
1107,48,-1518,-4734,-201,747,-1437,-127,215,-652
1108,233,-1299,-4603,-172,726,-1129,-127,215,-652
1109,224,-1045,-4611,-83,721,-881,-127,215,-652
1110,331,-854,-4452,31,663,-686,-127,215,-652
1111,463,-682,-4423,113,628,-537,-127,215,-652
1112,546,-466,-4266,219,590,-416,-127,215,-652
1113,685,-353,-4135,333,548,-340,-124,207,-660
1114,662,-235,-4139,423,561,-281,-124,207,-660
1115,677,-169,-4133,561,687,-208,-124,207,-660
1116,801,-136,-4106,668,723,-159,-124,207,-660
1117,861,-75,-4129,726,750,-135,-124,207,-660
1118,874,-26,-4224,774,870,-122,-124,207,-660
1119,957,24,-4376,803,966,-102,-124,207,-660
1120,1035,70,-4510,814,1013,-107,-124,207,-660
1121,1101,33,-4720,810,1027,-125,-124,207,-660
1122,1109,19,-4787,744,993,-154,-124,207,-660
1123,1148,34,-4890,658,944,-186,-124,207,-660
1124,1128,-36,-4895,555,836,-232,-124,207,-660
1125,1098,-87,-4926,441,761,-255,-124,207,-660
1126,1074,-182,-4930,304,692,-253,-124,207,-660
1127,1034,-248,-4887,186,648,-240,-124,207,-660
1128,944,-263,-4850,82,624,-199,-124,207,-660
1129,931,-335,-4753,-2,610,-138,-106,191,-658
1130,870,-380,-4728,-39,573,-80,-106,191,-658
1131,837,-393,-4718,-56,555,-4,-106,191,-658
1132,851,-393,-4690,-67,506,69,-106,191,-658
1133,846,-411,-4604,-80,483,152,-106,191,-658
1134,844,-401,-4544,-79,450,233,-106,191,-658
1135,807,-400,-4503,-67,433,320,-106,191,-658
1136,763,-370,-4474,-41,409,406,-106,191,-658
1137,834,-340,-4430,14,391,488,-106,191,-658
1138,863,-341,-4345,80,370,570,-106,191,-658
1139,831,-280,-4269,136,369,641,-106,191,-658
1140,876,-276,-4277,140,406,708,-106,191,-658
1141,869,-210,-4315,108,488,767,-106,191,-658
1142,982,-165,-4244,104,498,817,-106,191,-658
1143,986,-84,-4254,82,520,858,-106,191,-658
1144,979,-23,-4219,72,587,898,-106,191,-658
1145,1066,32,-4248,97,609,925,-106,191,-658
1146,1115,93,-4250,119,574,931,-98,197,-662
1147,1130,151,-4371,152,502,900,-98,197,-662
1148,1162,138,-4432,233,340,868,-98,197,-662
1149,1171,141,-4593,276,195,850,-98,197,-662
1150,1146,73,-4700,252,71,839,-98,197,-662
1151,1124,13,-4708,183,-67,839,-98,197,-662
1152,1064,-6,-4721,52,-92,857,-98,197,-662
1153,1027,33,-4648,19,-166,886,-98,197,-662
1154,1004,-41,-4600,10,-211,922,-98,197,-662
1155,943,-172,-4608,16,-204,1005,-98,197,-662
1156,966,-253,-4587,65,-253,1099,-98,197,-662
1157,911,-341,-4654,22,-259,1209,-98,197,-662
1158,896,-418,-4701,-1,-280,1323,-98,197,-662
1159,888,-481,-4641,-45,-268,1450,-98,197,-662
1160,900,-492,-4680,-118,-306,1567,-98,197,-662
1161,914,-496,-4660,-187,-310,1688,-98,197,-662
1162,942,-428,-4592,-250,-347,1802,-86,188,-667
1163,924,-327,-4566,-320,-325,1894,-86,188,-667
1164,1045,-191,-4446,-376,-369,1936,-86,188,-667
1165,1064,-49,-4382,-417,-372,1950,-86,188,-667
1166,1047,88,-4296,-416,-349,1939,-86,188,-667
1167,1085,241,-4239,-391,-308,1911,-86,188,-667
1168,1120,367,-4133,-264,-330,1865,-86,188,-667
1169,1068,204,-4101,-182,-224,1847,-86,188,-667
1170,1171,190,-4090,-185,-207,1814,-86,188,-667
1171,1136,208,-4054,-142,-286,1799,-86,188,-667
1172,1043,80,-4077,-92,-251,1783,-86,188,-667
1173,1029,15,-4184,-35,-256,1798,-86,188,-667
1174,1011,-96,-4179,-6,-290,1829,-86,188,-667
1175,979,-208,-4146,-37,-289,1875,-86,188,-667
1176,968,-230,-4216,-96,-268,1934,-86,188,-667
1177,1004,-215,-4177,-149,-259,1986,-86,188,-667
1178,994,-141,-4178,-157,-236,2041,-81,191,-657
1179,1041,-30,-4138,-157,-234,2063,-81,191,-657
1180,1052,-10,-4163,-152,-237,2074,-81,191,-657
1181,986,51,-4166,-153,-232,2063,-81,191,-657
1182,1016,-41,-4216,-155,-251,2051,-81,191,-657
1183,1034,-87,-4214,-162,-278,2058,-81,191,-657
1184,1052,-70,-4209,-196,-256,2064,-81,191,-657
1185,1090,61,-4170,-258,-219,2057,-81,191,-657
1186,1097,149,-4129,-328,-156,2018,-81,191,-657
1187,1146,284,-4092,-364,-90,1964,-81,191,-657
1188,1158,369,-4077,-365,-33,1893,-81,191,-657
1189,1178,390,-4061,-368,-14,1814,-81,191,-657
1190,1182,409,-4043,-375,-18,1736,-81,191,-657
1191,1126,394,-4132,-387,43,1655,-81,191,-657
1192,1042,352,-4183,-368,39,1578,-81,191,-657
1193,1098,183,-4224,-397,-9,1530,-81,191,-657
1194,986,187,-4286,-335,-26,1503,-75,207,-659
1195,975,-28,-4391,-457,-61,1499,-75,207,-659
1196,989,-68,-4335,-502,-83,1522,-75,207,-659
1197,898,-100,-4343,-510,-92,1545,-75,207,-659
1198,943,-318,-4272,-599,-148,1606,-75,207,-659
1199,959,-144,-4267,-575,-163,1686,-75,207,-659
1200,1007,-186,-4252,-712,-176,1730,-75,207,-659
1201,1161,-41,-4144,-688,-179,1790,-75,207,-659
1202,1112,101,-4141,-723,-144,1850,-75,207,-659
1203,1084,147,-4114,-730,-218,1867,-75,207,-659
1204,1024,103,-4118,-675,-202,1824,-75,207,-659
1205,901,108,-4124,-728,-221,1786,-75,207,-659
1206,927,51,-4128,-705,-192,1810,-75,207,-659
1207,965,170,-4053,-663,-105,1782,-75,207,-659
1208,911,81,-4049,-700,-42,1811,-75,207,-659
1209,1137,247,-4043,-788,-130,1766,-75,207,-659
1210,905,227,-3978,-697,24,1756,-58,206,-658
1211,1096,276,-4007,-821,40,1674,-58,206,-658
1212,1008,425,-3992,-631,159,1655,-58,206,-658
1213,862,356,-4094,-587,210,1599,-58,206,-658
1214,1132,276,-4111,-582,5,1540,-58,206,-658
1215,1132,401,-4113,-554,-38,1500,-58,206,-658
1216,1075,373,-4186,-646,-82,1428,-58,206,-658
1217,1098,506,-4147,-626,-128,1358,-58,206,-658
1218,1277,429,-4026,-585,-153,1281,-58,206,-658
1219,1068,507,-4087,-440,-61,1217,-58,206,-658
1220,994,292,-4198,-493,-79,1164,-58,206,-658
1221,1247,281,-4177,-542,-159,1120,-58,206,-658
1222,997,325,-4216,-550,-14,1114,-58,206,-658
1223,1071,249,-4165,-660,-33,1095,-58,206,-658
1224,1052,389,-4154,-611,-106,1057,-58,206,-658
1225,1198,230,-4088,-557,-76,1062,-58,206,-658
1226,1070,227,-4183,-616,-73,1021,-45,214,-647
1227,1074,139,-4097,-614,0,1045,-45,214,-647
1228,952,197,-4142,-663,55,1025,-45,214,-647
1229,871,264,-4141,-588,65,989,-45,214,-647
1230,1068,214,-4076,-559,61,979,-45,214,-647
1231,1068,225,-4031,-613,100,967,-45,214,-647
1232,1092,179,-4084,-690,63,915,-45,214,-647
1233,1140,253,-4029,-637,98,910,-45,214,-647
1234,1118,312,-4033,-696,120,889,-45,214,-647
1235,1015,372,-4080,-650,148,850,-45,214,-647
1236,1144,381,-4083,-663,185,809,-45,214,-647
1237,1138,377,-4127,-741,168,768,-45,214,-647
1238,1148,449,-4188,-822,106,674,-45,214,-647
1239,1148,461,-4074,-707,236,658,-45,214,-647
1240,1114,478,-4174,-752,201,603,-45,214,-647
1241,1091,517,-4210,-564,164,570,-45,214,-647
1242,1390,404,-4191,-598,63,523,-42,239,-648
1243,1243,465,-4207,-500,55,506,-42,239,-648
1244,1154,446,-4254,-524,64,494,-42,239,-648
1245,1162,518,-4282,-467,-33,446,-42,239,-648
1246,1133,561,-4251,-379,-52,414,-42,239,-648
1247,1228,560,-4189,-304,-98,356,-42,239,-648
1248,1216,540,-4151,-243,-230,302,-42,239,-648
1249,1186,609,-4121,-177,-328,255,-42,239,-648
1250,1143,619,-4052,-109,-334,207,-42,239,-648
1251,1137,634,-4083,-29,-297,163,-42,239,-648
1252,1156,628,-4073,40,-265,115,-42,239,-648
1253,1210,675,-4093,103,-268,34,-42,239,-648
1254,1223,727,-4073,105,-302,-53,-42,239,-648
1255,1222,807,-4110,125,-303,-157,-42,239,-648
1256,1216,837,-4128,161,-271,-274,-42,239,-648
1257,1214,835,-4123,172,-212,-398,-42,239,-648
1258,1262,892,-4118,121,-183,-525,-42,229,-647
1259,1283,1006,-4156,38,-189,-697,-42,229,-647
1260,1335,1148,-4116,1,-183,-903,-42,229,-647
1261,1366,1205,-4149,7,-225,-1113,-42,229,-647
1262,1370,1184,-4138,12,-282,-1326,-42,229,-647
1263,1347,1226,-4148,24,-287,-1545,-42,229,-647
1264,1489,1239,-4082,-6,-348,-1775,-42,229,-647
1265,1475,1320,-3995,1,-345,-1996,-42,229,-647
1266,1541,1410,-3884,45,-361,-2236,-42,229,-647
1267,1491,1471,-3913,111,-366,-2473,-42,229,-647
1268,1512,1457,-3912,177,-388,-2714,-42,229,-647
1269,1513,1399,-3957,237,-401,-2945,-42,229,-647
1270,1451,1325,-3942,279,-388,-3163,-42,229,-647
1271,1442,1184,-3965,317,-433,-3361,-42,229,-647
1272,1416,1077,-4042,360,-455,-3527,-42,229,-647
1273,1358,819,-4109,353,-482,-3658,-42,229,-647
1274,1274,630,-4141,317,-540,-3768,-66,224,-642
1275,1136,382,-4194,268,-534,-3802,-66,224,-642
1276,1069,218,-4152,217,-525,-3795,-66,224,-642
1277,1005,51,-4139,179,-511,-3726,-66,224,-642
1278,912,-73,-4158,139,-487,-3622,-66,224,-642
1279,914,-90,-4149,82,-470,-3527,-66,224,-642
1280,866,-69,-4166,44,-408,-3416,-66,224,-642
1281,894,-51,-4272,1,-368,-3333,-66,224,-642
1282,863,-7,-4255,-24,-346,-3242,-66,224,-642
1283,896,32,-4322,10,-339,-3172,-66,224,-642
1284,948,80,-4302,116,-328,-3089,-66,224,-642
1285,893,90,-4352,169,-341,-3022,-66,224,-642
1286,891,79,-4414,187,-320,-2963,-66,224,-642
1287,882,71,-4466,166,-320,-2933,-66,224,-642
1288,895,108,-4437,161,-328,-2882,-66,224,-642
1289,871,69,-4343,170,-356,-2841,-66,224,-642
1290,861,86,-4310,178,-387,-2809,-109,232,-649
1291,738,18,-4284,136,-351,-2775,-109,232,-649
1292,885,105,-4182,-26,-268,-2767,-109,232,-649
1293,844,114,-4094,-17,-187,-2740,-109,232,-649
1294,810,161,-4050,-53,-27,-2705,-109,232,-649
1295,899,200,-3990,-76,99,-2698,-109,232,-649
1296,938,257,-4028,-97,216,-2687,-109,232,-649
1297,940,268,-4157,-168,311,-2693,-109,232,-649
1298,950,239,-4222,-235,332,-2730,-109,232,-649
1299,912,206,-4289,-300,329,-2766,-109,232,-649
1300,908,80,-4302,-345,308,-2779,-109,232,-649
1301,815,3,-4362,-390,325,-2784,-109,232,-649
1302,857,-92,-4320,-391,347,-2698,-109,232,-649
1303,754,-243,-4389,-455,385,-2616,-109,232,-649
1304,733,-260,-4347,-509,486,-2489,-109,232,-649
1305,673,-228,-4374,-593,591,-2369,-109,232,-649
1306,683,-194,-4368,-637,699,-2279,-121,224,-649
1307,725,-190,-4365,-659,739,-2200,-121,224,-649
1308,698,-116,-4359,-629,748,-2123,-121,224,-649
1309,687,-158,-4371,-568,756,-2035,-121,224,-649
1310,662,-231,-4370,-519,747,-1950,-121,224,-649
1311,601,-256,-4363,-456,763,-1830,-121,224,-649
1312,566,-355,-4368,-391,758,-1711,-121,224,-649
1313,587,-438,-4348,-317,777,-1581,-121,224,-649
1314,541,-434,-4420,-228,769,-1442,-121,224,-649
1315,561,-465,-4339,-125,773,-1259,-121,224,-649
1316,534,-500,-4426,-40,780,-1094,-121,224,-649
1317,578,-516,-4434,26,770,-943,-121,224,-649
1318,619,-535,-4479,68,648,-785,-121,224,-649
1319,665,-485,-4440,123,501,-648,-121,224,-649
1320,559,-426,-4554,165,540,-508,-121,224,-649
1321,686,-430,-4523,175,528,-392,-121,224,-649
1322,659,-422,-4549,156,470,-271,-116,226,-645
1323,691,-369,-4521,148,469,-168,-116,226,-645
1324,691,-363,-4548,161,514,-56,-116,226,-645
1325,713,-346,-4517,177,526,42,-116,226,-645
1326,726,-353,-4498,209,514,148,-116,226,-645
1327,717,-295,-4501,243,524,242,-116,226,-645
1328,758,-262,-4505,254,524,333,-116,226,-645
1329,798,-230,-4540,254,512,401,-116,226,-645
1330,842,-167,-4586,228,491,462,-116,226,-645
1331,933,-67,-4625,205,451,490,-116,226,-645
1332,944,2,-4660,193,392,517,-116,226,-645
1333,953,43,-4652,179,329,535,-116,226,-645
1334,952,52,-4650,174,278,535,-116,226,-645
1335,975,94,-4618,155,227,551,-116,226,-645
1336,994,82,-4651,99,171,550,-116,226,-645
1337,948,73,-4612,46,126,569,-116,226,-645
1338,958,91,-4604,14,98,577,-112,229,-657
1339,882,63,-4527,13,98,620,-112,229,-657
1340,930,-7,-4479,40,21,657,-112,229,-657
1341,936,-41,-4471,36,-73,703,-112,229,-657
1342,845,-64,-4439,34,-110,763,-112,229,-657
1343,854,-39,-4403,19,-78,824,-112,229,-657
1344,855,1,-4400,11,-31,879,-112,229,-657
1345,864,57,-4349,3,-17,920,-112,229,-657
1346,747,37,-4417,-42,87,967,-112,229,-657
1347,913,99,-4264,-2,61,1001,-112,229,-657
1348,870,84,-4291,66,30,1047,-112,229,-657
1349,799,-40,-4440,114,113,1114,-112,229,-657
1350,846,-233,-4469,137,99,1223,-112,229,-657
1351,728,-325,-4566,118,42,1343,-112,229,-657
1352,813,-308,-4573,105,21,1469,-112,229,-657
1353,870,-259,-4554,63,31,1588,-112,229,-657
1354,897,-164,-4543,14,12,1677,-96,221,-656
1355,888,-62,-4453,-55,33,1733,-96,221,-656
1356,933,13,-4410,-70,37,1783,-96,221,-656
1357,1018,121,-4339,-60,51,1803,-96,221,-656
1358,964,170,-4257,-95,96,1813,-96,221,-656
1359,1031,193,-4179,-171,135,1814,-96,221,-656
1360,1075,318,-4124,-198,148,1802,-96,221,-656
1361,1037,419,-4090,-162,204,1766,-96,221,-656
1362,1118,460,-4137,-90,193,1724,-96,221,-656
1363,1096,507,-4248,-68,159,1653,-96,221,-656
1364,1183,518,-4226,-53,71,1581,-96,221,-656
1365,1123,520,-4258,-59,21,1509,-96,221,-656
1366,1107,479,-4263,-64,-25,1456,-96,221,-656
1367,1094,377,-4245,-51,-39,1416,-96,221,-656
1368,1032,310,-4264,-60,-44,1395,-96,221,-656
1369,1023,183,-4240,-76,-54,1405,-96,221,-656
1370,977,127,-4255,-85,-51,1427,-96,221,-656
1371,1024,144,-4177,-64,-68,1460,-84,217,-650
1372,906,19,-4193,-67,1,1521,-84,217,-650
1373,925,95,-4193,-132,36,1538,-84,217,-650
1374,932,114,-4144,-141,51,1571,-84,217,-650
1375,921,118,-4138,-141,90,1601,-84,217,-650
1376,926,175,-4166,-131,108,1611,-84,217,-650
1377,938,131,-4117,-102,121,1627,-84,217,-650
1378,910,126,-4121,-103,134,1652,-84,217,-650
1379,882,118,-4186,-108,159,1660,-84,217,-650
1380,835,79,-4163,-92,227,1692,-84,217,-650
1381,855,-19,-4205,-79,343,1741,-84,217,-650
1382,945,-50,-4130,-161,274,1760,-84,217,-650
1383,936,-66,-4102,-199,264,1790,-84,217,-650
1384,957,-7,-4071,-194,291,1835,-84,217,-650
1385,992,99,-4018,-187,306,1858,-84,217,-650
1386,1033,193,-3977,-173,344,1874,-84,217,-650
1387,1040,284,-3991,-158,409,1872,-70,232,-655
1388,1065,277,-3981,-170,446,1843,-70,232,-655
1389,1116,253,-4018,-207,440,1832,-70,232,-655
1390,1087,281,-4156,-265,449,1807,-70,232,-655
1391,1077,221,-4152,-329,384,1781,-70,232,-655
1392,1129,298,-4142,-288,309,1764,-70,232,-655
1393,1062,241,-4233,-360,260,1748,-70,232,-655
1394,1160,131,-4192,-408,184,1739,-70,232,-655
1395,1085,261,-4177,-390,169,1747,-70,232,-655
1396,1238,132,-4174,-424,115,1778,-70,232,-655
1397,1020,-59,-4184,-439,100,1811,-70,232,-655
1398,982,-141,-4139,-451,46,1893,-70,232,-655
1399,960,-221,-4279,-554,-28,1957,-70,232,-655
1400,1004,-122,-4246,-495,-40,2079,-70,232,-655
1401,1170,-127,-4220,-568,-103,2146,-70,232,-655
1402,1019,-8,-4217,-632,-206,2206,-70,232,-655
1403,1059,50,-4205,-589,-120,2250,-46,227,-649
1404,1115,169,-4061,-738,-134,2234,-46,227,-649
1405,957,385,-4079,-620,-66,2258,-46,227,-649
1406,1112,403,-3992,-610,-27,2212,-46,227,-649
1407,1396,570,-3868,-518,-67,2176,-46,227,-649
1408,1266,602,-4011,-470,-59,2086,-46,227,-649
1409,1203,491,-4001,-436,-11,2002,-46,227,-649
1410,1089,460,-4136,-444,-3,1911,-46,227,-649
1411,1212,368,-4178,-507,-23,1844,-46,227,-649
1412,1304,333,-4194,-488,-44,1811,-46,227,-649
1413,1273,340,-4263,-540,-106,1777,-46,227,-649
1414,1333,401,-4230,-576,-201,1757,-46,227,-649
1415,1175,525,-4277,-599,-141,1732,-46,227,-649
1416,1205,454,-4232,-740,-186,1681,-46,227,-649
1417,1411,578,-4149,-762,-226,1574,-46,227,-649
1418,1209,621,-4212,-741,-81,1525,-46,227,-649
1419,1304,674,-4175,-776,-126,1420,-31,233,-645
1420,1352,754,-4146,-735,-116,1369,-31,233,-645
1421,1270,864,-4157,-732,-73,1214,-31,233,-645
1422,1337,896,-4174,-685,-57,1122,-31,233,-645
1423,1414,853,-4076,-676,-10,1002,-31,233,-645
1424,1224,961,-4145,-581,73,892,-31,233,-645
1425,1471,869,-3985,-571,79,778,-31,233,-645
1426,1445,934,-4006,-539,87,685,-31,233,-645
1427,1309,825,-4052,-519,85,623,-31,233,-645
1428,1354,869,-4043,-466,53,524,-31,233,-645
1429,1352,729,-4080,-458,67,465,-31,233,-645
1430,1176,815,-4180,-438,100,395,-31,233,-645
1431,1417,719,-4149,-398,-18,337,-31,233,-645
1432,1254,682,-4234,-360,4,299,-31,233,-645
1433,1296,700,-4301,-353,-27,256,-31,233,-645
1434,1365,773,-4284,-354,-121,188,-31,233,-645
1435,1382,803,-4340,-320,-133,135,-28,250,-645
1436,1374,829,-4266,-308,-200,63,-28,250,-645
1437,1378,900,-4255,-296,-236,0,-28,250,-645
1438,1417,949,-4229,-261,-258,-77,-28,250,-645
1439,1427,1023,-4185,-238,-255,-160,-28,250,-645
1440,1407,1075,-4083,-222,-238,-287,-28,250,-645
1441,1391,1120,-4062,-196,-160,-422,-28,250,-645
1442,1461,1235,-4065,-165,-70,-559,-28,250,-645
1443,1524,1363,-4024,-141,43,-694,-28,250,-645
1444,1635,1582,-4063,-120,184,-855,-28,250,-645
1445,1781,1849,-4223,-89,332,-1075,-28,250,-645
1446,1821,2035,-4428,-111,524,-1348,-28,250,-645
1447,2014,2182,-4571,-218,578,-1708,-28,250,-645
1448,2085,2343,-4578,-314,687,-2110,-28,250,-645
1449,2199,2509,-4627,-336,750,-2527,-28,250,-645
1450,2334,2663,-4576,-319,761,-2965,-28,250,-645
1451,2429,2824,-4472,-239,738,-3445,-30,246,-644
1452,2480,2901,-4366,-156,644,-3965,-30,246,-644
1453,2527,2900,-4225,-56,520,-4518,-30,246,-644
1454,2527,2819,-4042,7,364,-5047,-30,246,-644
1455,2399,2571,-3769,59,199,-5512,-30,246,-644
1456,2304,2210,-3560,109,121,-5910,-30,246,-644
1457,2122,1867,-3354,112,200,-6241,-30,246,-644
1458,1846,1629,-3166,195,377,-6572,-30,246,-644
1459,1723,1243,-3052,385,529,-6791,-30,246,-644
1460,1669,912,-3012,562,647,-6906,-30,246,-644
1461,1521,593,-2991,967,714,-6942,-30,246,-644
1462,1316,47,-3025,1075,884,-6885,-30,246,-644
1463,1125,-375,-3177,903,1139,-6719,-30,246,-644
1464,772,-1063,-3301,432,1402,-6467,-30,246,-644
1465,1168,-1145,-3328,60,1277,-6189,-30,246,-644
1466,908,-1323,-3395,124,1255,-5679,-30,246,-644
1467,573,-1573,-3573,-40,1468,-5314,-30,246,-644
1468,198,-616,-3265,307,2081,-4661,-30,246,-644
1469,701,-1163,-4079,928,1983,-4318,-30,246,-644
1470,862,-1620,-4551,559,1675,-3972,-30,246,-644
1471,665,-1595,-4818,28,1475,-3590,-30,246,-644
1472,628,-1635,-5013,-553,1217,-3229,-30,246,-644
1473,565,-1335,-4975,-712,1150,-2891,-30,246,-644
1474,676,-1125,-4685,-762,995,-2565,-30,246,-644
1475,595,-895,-4619,-639,825,-2291,-30,246,-644
1476,637,-807,-4543,-427,767,-1998,-30,246,-644
1477,625,-752,-4518,-255,742,-1744,-30,246,-644
1478,626,-671,-4435,-162,691,-1513,-30,246,-644
1479,665,-624,-4466,-190,603,-1340,-30,246,-644
1480,740,-555,-4347,-242,576,-1164,-30,246,-644
1481,760,-452,-4338,-207,624,-998,-30,246,-644
1482,820,-409,-4223,-104,575,-851,-75,252,-645
1483,828,-263,-4190,74,592,-713,-75,252,-645
1484,895,-257,-4106,231,589,-601,-75,252,-645
1485,861,-241,-4122,353,689,-488,-75,252,-645
1486,984,-317,-4107,405,683,-412,-75,252,-645
1487,976,-365,-4067,400,630,-331,-75,252,-645
1488,1006,-346,-4103,417,624,-246,-75,252,-645
1489,957,-367,-4107,429,632,-163,-75,252,-645
1490,963,-392,-4066,464,667,-77,-75,252,-645
1491,1034,-352,-4042,504,650,3,-75,252,-645
1492,997,-395,-4181,521,668,75,-75,252,-645
1493,1035,-421,-4211,501,656,140,-75,252,-645
1494,1092,-414,-4317,442,622,215,-75,252,-645
1495,1088,-426,-4316,369,595,283,-75,252,-645
1496,1074,-408,-4344,315,569,352,-75,252,-645
1497,1055,-384,-4394,356,574,436,-75,252,-645
1498,1100,-423,-4483,418,546,526,-75,252,-645
1499,1117,-453,-4540,451,492,645,-57,241,-649
1500,1110,-501,-4573,454,445,752,-57,241,-649
1501,1146,-679,-4538,426,306,890,-57,241,-649
1502,1159,-583,-4595,383,207,1058,-57,241,-649
1503,1097,-546,-4625,297,211,1209,-57,241,-649
1504,1216,-388,-4581,205,180,1321,-57,241,-649
1505,1271,-263,-4620,199,103,1421,-57,241,-649
1506,1231,-144,-4734,234,97,1487,-57,241,-649
1507,1378,37,-4718,347,-35,1514,-57,241,-649
1508,1284,57,-4839,370,-82,1523,-57,241,-649
1509,1475,155,-4795,432,-216,1490,-57,241,-649
1510,1428,222,-4805,403,-269,1480,-57,241,-649
1511,1428,201,-4790,360,-366,1452,-57,241,-649
1512,1424,255,-4679,325,-379,1433,-57,241,-649
1513,1431,280,-4624,315,-418,1431,-57,241,-649
1514,1441,318,-4518,334,-436,1422,-57,241,-649
1515,1451,281,-4446,361,-463,1435,-49,226,-644
1516,1439,276,-4393,327,-445,1433,-49,226,-644
1517,1404,261,-4424,247,-415,1437,-49,226,-644
1518,1420,250,-4450,98,-365,1436,-49,226,-644
1519,1420,241,-4472,-1,-327,1420,-49,226,-644
1520,1408,191,-4434,-82,-317,1434,-49,226,-644
1521,1374,138,-4441,-121,-366,1457,-49,226,-644
1522,1307,48,-4520,-120,-398,1492,-49,226,-644
1523,1329,-59,-4556,-174,-405,1577,-49,226,-644
1524,1309,-147,-4533,-275,-425,1668,-49,226,-644
1525,1331,-148,-4546,-386,-449,1773,-49,226,-644
1526,1356,25,-4614,-421,-529,1851,-49,226,-644
1527,1546,102,-4583,-363,-777,1911,-49,226,-644
1528,1377,-4,-4543,-540,-801,1968,-49,226,-644
1529,1356,215,-4389,-756,-792,1965,-49,226,-644
1530,1356,435,-4249,-717,-713,1953,-49,237,-644
1531,1296,492,-4228,-641,-612,1928,-51,237,-655
1532,1388,531,-4163,-491,-572,1892,-51,237,-655
1533,1447,517,-4184,-388,-592,1860,-51,237,-655
1534,1363,458,-4208,-428,-551,1819,-51,237,-655
1535,1383,481,-4162,-477,-515,1797,-51,237,-655
1536,1356,549,-4070,-495,-512,1761,-51,237,-655
1537,1364,582,-3988,-448,-504,1729,-51,237,-655
1538,1358,638,-3967,-395,-503,1692,-51,237,-655
1539,1384,606,-3929,-351,-480,1656,-51,237,-655
1540,1331,623,-3943,-322,-448,1610,-51,237,-655
1541,1309,512,-3992,-289,-417,1577,-51,237,-655
1542,1233,340,-4056,-290,-364,1565,-51,237,-655
1543,1189,125,-4152,-364,-334,1598,-51,237,-655
1544,1159,31,-4240,-493,-295,1643,-51,237,-655
1545,1190,-40,-4302,-635,-266,1717,-51,237,-655
1546,1145,-25,-4311,-728,-274,1789,-38,234,-650
1547,1185,77,-4293,-784,-296,1855,-38,234,-650
1548,1158,217,-4314,-769,-311,1902,-38,234,-650
1549,1236,139,-4180,-813,-372,1948,-38,234,-650
1550,1155,320,-4196,-797,-452,1933,-38,234,-650
1551,1248,94,-4105,-877,-412,1979,-38,234,-650
1552,1145,209,-4194,-938,-390,2004,-38,234,-650
1553,1162,43,-4144,-1022,-360,2074,-38,234,-650
1554,1158,248,-4111,-983,-281,2145,-38,234,-650
1555,1091,371,-4056,-984,-169,2177,-38,234,-650
1556,1157,516,-3937,-975,-184,2159,-38,234,-650
1557,1271,586,-3875,-935,-205,2147,-38,234,-650
1558,1190,799,-3863,-829,-73,2108,-38,234,-650
1559,1347,684,-3846,-878,-56,2018,-38,234,-650
1560,1380,729,-3870,-735,-71,1935,-38,234,-650
1561,1301,630,-3930,-621,6,1910,-38,234,-650
1562,1521,526,-3816,-628,-79,1867,-23,245,-637
1563,1203,676,-3929,-608,-92,1835,-23,245,-637
1564,1204,536,-3871,-589,47,1814,-23,245,-637
1565,959,415,-4061,-554,83,1794,-23,245,-637
1566,1213,84,-4083,-532,0,1805,-23,245,-637
1567,1248,60,-4152,-525,31,1878,-23,245,-637
1568,1241,-104,-4246,-727,18,1986,-23,245,-637
1569,1201,43,-4274,-872,-75,1990,-23,245,-637
1570,1345,55,-4181,-959,-85,2016,-23,245,-637
1571,1507,320,-4022,-1169,-82,2073,-23,245,-637
1572,1111,650,-4022,-1141,-57,2044,-23,245,-637
1573,1340,551,-3795,-1150,-80,2070,-23,245,-637
1574,1263,790,-3916,-1147,-110,1939,-23,245,-637
1575,1317,628,-3810,-1062,56,1906,-23,245,-637
1576,1706,899,-3636,-1058,41,1862,-23,245,-637
1577,1433,1027,-3759,-909,43,1776,-23,245,-637
1578,1412,958,-3673,-842,130,1683,-10,269,-639
1579,1427,1051,-3716,-779,169,1561,-10,269,-639
1580,1493,1073,-3719,-821,91,1441,-10,269,-639
1581,1534,1171,-3770,-727,13,1336,-10,269,-639
1582,1444,1110,-3792,-646,111,1211,-10,269,-639
1583,1575,937,-3819,-782,-57,1097,-10,269,-639
1584,1276,1111,-3832,-698,16,960,-10,269,-639
1585,1339,1027,-3786,-592,123,880,-10,269,-639
1586,1521,1020,-3757,-524,40,814,-10,269,-639
1587,1414,1015,-3877,-353,133,735,-10,269,-639
1588,1535,892,-3938,-313,68,691,-10,269,-639
1589,1485,874,-4042,-374,14,619,-10,269,-639
1590,1387,857,-4111,-373,74,565,-10,269,-639
1591,1401,837,-4126,-378,113,503,-10,269,-639
1592,1450,824,-4105,-380,78,461,-10,269,-639
1593,1486,852,-4077,-322,64,421,-10,269,-639
1594,1508,889,-4082,-290,63,391,5,266,-637
1595,1533,827,-4112,-355,51,340,5,266,-637
1596,1516,967,-4056,-389,111,287,5,266,-637
1597,1571,1110,-4034,-334,191,240,5,266,-637
1598,1607,1218,-4116,-249,245,151,5,266,-637
1599,1659,1262,-4104,-221,270,0,5,266,-637
1600,1692,1426,-4135,-176,292,-152,5,266,-637
1601,1728,1436,-4225,-153,296,-346,5,266,-637
1602,1811,1546,-4229,-151,287,-533,5,266,-637
1603,1827,1599,-4251,-138,301,-721,5,266,-637
1604,1832,1679,-4313,-137,323,-924,5,266,-637
1605,1880,1737,-4273,-114,356,-1141,5,266,-637
1606,1883,1785,-4231,-37,398,-1349,5,266,-637
1607,1889,1721,-4203,-59,311,-1587,5,266,-637
1608,1894,1777,-4198,-25,297,-1817,5,266,-637
1609,1821,1805,-4220,101,353,-2065,5,266,-637
1610,1859,1859,-4141,189,473,-2287,5,267,-624
1611,1971,1881,-4085,191,548,-2534,0,267,-624
1612,2020,1977,-4115,136,567,-2815,0,267,-624
1613,2060,2127,-4093,244,670,-3099,0,267,-624
1614,2074,2135,-3994,399,800,-3376,0,267,-624
1615,2235,2124,-3804,461,809,-3613,0,267,-624
1616,2296,2232,-3596,494,828,-3894,0,267,-624
1617,2193,2462,-3546,541,950,-4273,0,267,-624
1618,2299,2502,-3510,661,1117,-4641,0,267,-624
1619,2285,2421,-3551,822,1237,-5057,0,267,-624
1620,2244,2238,-3613,1009,1305,-5413,0,267,-624
1621,2298,1982,-3544,1152,1252,-5705,0,267,-624
1622,2177,1657,-3435,1258,1113,-5951,0,267,-624
1623,2099,1410,-3290,1431,966,-6103,0,267,-624
1624,1986,1263,-3225,1702,857,-6197,0,267,-624
1625,1826,984,-3235,2082,812,-6250,0,267,-624
1626,1632,546,-3235,2083,896,-6282,-29,271,-641
1627,1608,156,-3113,1753,994,-6293,-29,271,-641
1628,1103,-487,-3284,900,1475,-6199,-29,271,-641
1629,1151,-172,-3166,633,1700,-6059,-29,271,-641
1630,1120,-217,-3247,912,1901,-5799,-29,271,-641
1631,1135,-583,-3303,999,2075,-5492,-29,271,-641
1632,1310,-677,-3422,1131,1898,-5123,-29,271,-641
1633,1136,-975,-3799,960,1858,-4828,-29,271,-641
1634,1066,-1013,-4044,627,1920,-4542,-29,271,-641
1635,1228,-1038,-4249,289,1754,-4223,-29,271,-641
1636,1123,-1063,-4439,-9,1692,-3910,-29,271,-641
1637,1065,-1115,-4487,-206,1568,-3612,-29,271,-641
1638,992,-1057,-4467,-288,1541,-3286,-29,271,-641
1639,963,-971,-4458,-368,1517,-3006,-29,271,-641
1640,957,-863,-4368,-440,1486,-2769,-29,271,-641
1641,1026,-781,-4311,-528,1400,-2575,-29,271,-641
1642,996,-688,-4271,-570,1383,-2378,-30,257,-644
1643,996,-548,-4228,-523,1363,-2170,-30,257,-644
1644,953,-484,-4298,-422,1455,-1953,-30,257,-644
1645,1027,-536,-4294,-267,1494,-1733,-30,257,-644
1646,1027,-523,-4329,-84,1536,-1493,-30,257,-644
1647,1151,-567,-4318,55,1442,-1280,-30,257,-644
1648,1108,-554,-4374,175,1394,-1064,-30,257,-644
1649,1147,-580,-4367,268,1339,-858,-30,257,-644
1650,1225,-530,-4406,345,1247,-660,-30,257,-644
1651,1209,-543,-4406,411,1145,-482,-30,257,-644
1652,1234,-634,-4390,450,1023,-319,-30,257,-644
1653,1336,-621,-4416,451,849,-161,-30,257,-644
1654,1251,-586,-4431,439,673,-22,-30,257,-644
1655,1282,-561,-4327,426,548,105,-30,257,-644
1656,1296,-542,-4288,449,472,250,-30,257,-644
1657,1313,-476,-4224,531,443,394,-30,257,-644
1658,1314,-338,-4221,661,437,526,-16,255,-642
1659,1368,-277,-4227,817,425,638,-16,255,-642
1660,1450,-259,-4237,931,356,714,-16,255,-642
1661,1523,-219,-4286,963,197,769,-16,255,-642
1662,1589,-225,-4333,933,11,794,-16,255,-642
1663,1519,-193,-4365,878,-81,833,-16,255,-642
1664,1516,-179,-4333,863,-110,884,-16,255,-642
1665,1570,-137,-4294,905,-164,989,-16,255,-642
1666,1550,-122,-4399,905,-213,1036,-16,255,-642
1667,1553,-70,-4364,882,-233,1084,-16,255,-642
1668,1563,-62,-4375,852,-235,1098,-16,255,-642
1669,1542,-41,-4375,828,-208,1111,-16,255,-642
1670,1640,-48,-4383,843,-308,1153,-16,255,-642
1671,1612,-19,-4457,810,-345,1205,-16,255,-642
1672,1625,-14,-4484,730,-336,1245,-16,255,-642
1673,1721,43,-4451,686,-415,1260,-16,255,-642
1674,1704,49,-4533,673,-489,1278,-15,238,-655
1675,1637,38,-4552,633,-449,1322,-15,238,-655
1676,1664,-42,-4477,563,-515,1365,-15,238,-655
1677,1779,26,-4420,563,-692,1416,-15,238,-655
1678,1511,21,-4494,400,-590,1457,-15,238,-655
1679,1650,38,-4354,346,-671,1494,-15,238,-655
1680,1628,139,-4409,303,-686,1524,-15,238,-655
1681,1571,133,-4421,257,-501,1555,-15,238,-655
1682,1727,203,-4338,277,-524,1602,-15,238,-655
1683,1618,147,-4335,244,-476,1652,-15,238,-655
1684,1553,230,-4283,238,-497,1675,-15,238,-655
1685,1576,214,-4312,205,-412,1700,-15,238,-655
1686,1624,227,-4303,212,-417,1716,-15,238,-655
1687,1608,248,-4280,187,-398,1731,-15,238,-655
1688,1645,178,-4253,80,-407,1751,-15,238,-655
1689,1731,231,-4246,-46,-452,1757,-15,238,-655
1690,1638,273,-4265,-189,-404,1755,-8,220,-657
1691,1617,251,-4291,-255,-414,1754,-8,220,-657
1692,1670,273,-4271,-319,-385,1772,-8,220,-657
1693,1714,343,-4220,-352,-480,1769,-8,220,-657
1694,1653,377,-4184,-411,-421,1785,-8,220,-657
1695,1726,481,-4131,-415,-452,1757,-8,220,-657
1696,1895,696,-3999,-346,-469,1722,-8,220,-657
1697,1691,672,-4005,-70,-543,1695,-8,220,-657
1698,1533,505,-4134,-223,-275,1662,-8,220,-657
1699,1754,488,-4065,-204,-319,1608,-8,220,-657
1700,1689,366,-4063,-224,-400,1606,-8,220,-657
1701,1604,340,-4024,-257,-402,1615,-8,220,-657
1702,1618,371,-4031,-284,-420,1626,-8,220,-657
1703,1504,425,-4075,-288,-327,1628,-8,220,-657
1704,1575,421,-4055,-270,-302,1621,-8,220,-657
1705,1523,392,-4107,-291,-226,1622,-8,220,-657
1706,1577,375,-4077,-294,-217,1609,-5,221,-650
1707,1569,339,-4100,-340,-220,1619,-5,221,-650
1708,1544,358,-4137,-388,-215,1615,-5,221,-650
1709,1581,357,-4161,-435,-191,1609,-5,221,-650
1710,1637,403,-4117,-477,-180,1621,-5,221,-650
1711,1529,414,-4135,-518,-172,1599,-5,221,-650
1712,1622,412,-4076,-529,-180,1586,-5,221,-650
1713,1564,377,-4096,-536,-185,1591,-5,221,-650
1714,1548,338,-4065,-510,-177,1586,-5,221,-650
1715,1517,199,-4112,-526,-132,1606,-5,221,-650
1716,1531,208,-4129,-569,-97,1648,-5,221,-650
1717,1521,144,-4132,-630,-71,1679,-5,221,-650
1718,1515,170,-4159,-681,-28,1714,-5,221,-650
1719,1573,222,-4162,-745,-11,1739,-5,221,-650
1720,1578,299,-4123,-808,-4,1745,-5,221,-650
1721,1584,379,-4100,-847,2,1738,-5,221,-650
1722,1732,378,-4097,-852,-36,1725,1,232,-655
1723,1606,471,-4046,-836,-9,1711,1,232,-655
1724,1523,489,-3984,-791,8,1690,1,232,-655
1725,1659,416,-3939,-784,-77,1642,1,232,-655
1726,1562,526,-3930,-627,-57,1651,1,232,-655
1727,1500,272,-4068,-777,-66,1600,1,232,-655
1728,1515,393,-4021,-764,-49,1588,1,232,-655
1729,1427,323,-4062,-817,-26,1570,1,232,-655
1730,1529,355,-3991,-831,-25,1558,1,232,-655
1731,1630,371,-3946,-818,-58,1552,1,232,-655
1732,1557,399,-3993,-762,-39,1552,1,232,-655
1733,1593,369,-4091,-761,-89,1529,1,232,-655
1734,1547,331,-4133,-768,-70,1511,1,232,-655
1735,1636,275,-4107,-888,-84,1506,1,232,-655
1736,1506,280,-4161,-916,-79,1485,1,232,-655
1737,1526,37,-4189,-939,-31,1514,1,232,-655
1738,1451,0,-4115,-1042,-67,1536,23,235,-644
1739,1456,13,-4069,-1107,-141,1599,23,235,-644
1740,1474,88,-4070,-1170,-122,1620,23,235,-644
1741,1466,184,-4019,-1177,-82,1638,23,235,-644
1742,1699,325,-3962,-1208,-123,1631,23,235,-644
1743,1615,542,-3894,-1152,-94,1631,23,235,-644
1744,1535,598,-3851,-1175,-139,1564,23,235,-644
1745,1584,686,-3749,-1070,-71,1523,23,235,-644
1746,1642,670,-3732,-1098,-54,1455,23,235,-644
1747,1562,818,-3723,-993,-8,1384,23,235,-644
1748,1630,765,-3743,-938,33,1299,23,235,-644
1749,1710,769,-3655,-801,76,1224,23,235,-644
1750,1676,712,-3689,-722,102,1177,23,235,-644
1751,1486,709,-3811,-655,134,1102,23,235,-644
1752,1622,528,-3783,-619,168,1078,23,235,-644
1753,1487,551,-3809,-655,189,1019,23,235,-644
1754,1586,482,-3743,-672,177,977,33,247,-632
1755,1577,566,-3763,-634,205,925,33,247,-632
1756,1602,374,-3681,-633,210,938,33,247,-632
1757,1560,475,-3692,-761,85,899,33,247,-632
1758,1444,585,-3699,-643,139,924,33,247,-632
1759,1448,505,-3716,-653,207,902,33,247,-632
1760,1523,452,-3770,-641,138,873,33,247,-632
1761,1609,578,-3772,-590,119,881,33,247,-632
1762,1571,651,-3876,-539,216,858,33,247,-632
1763,1487,622,-3894,-529,168,810,33,247,-632
1764,1680,756,-3838,-411,132,762,33,247,-632
1765,1587,747,-3911,-367,181,734,33,247,-632
1766,1701,749,-3816,-376,78,694,33,247,-632
1767,1700,781,-3822,-363,40,649,33,247,-632
1768,1675,786,-3768,-284,58,611,33,247,-632
1769,1606,883,-3859,-175,103,584,33,247,-632
1770,1732,865,-3806,-147,41,531,39,262,-633
1771,1644,1006,-3854,-38,76,474,39,262,-633
1772,1694,892,-3801,-11,52,421,39,262,-633
1773,1790,988,-3871,48,-94,325,39,262,-633
1774,1659,1003,-3884,151,-77,271,39,262,-633
1775,1784,1018,-3830,151,-108,196,39,262,-633
1776,1771,1064,-3800,163,-144,122,39,262,-633
1777,1781,1179,-3761,182,-116,38,39,262,-633
1778,1857,1268,-3754,213,-122,-91,39,262,-633
1779,1865,1312,-3705,261,-107,-211,39,262,-633
1780,1907,1383,-3724,293,-120,-338,39,262,-633
1781,1967,1436,-3723,291,-181,-496,39,262,-633
1782,2016,1547,-3663,308,-224,-665,39,262,-633
1783,2005,1621,-3736,322,-242,-821,39,262,-633
1784,2021,1682,-3742,314,-299,-1037,39,262,-633
1785,2078,1708,-3724,355,-374,-1229,39,262,-633
1786,2090,1743,-3677,392,-483,-1428,41,247,-640
1787,2126,1841,-3596,443,-545,-1657,41,247,-640
1788,2216,1961,-3508,499,-645,-1872,41,247,-640
1789,2247,2109,-3494,520,-760,-2144,41,247,-640
1790,2366,2196,-3511,473,-930,-2464,41,247,-640
1791,2370,2334,-3511,512,-1092,-2822,41,247,-640
1792,2391,2520,-3434,537,-1235,-3201,41,247,-640
1793,2457,2733,-3252,671,-1326,-3654,41,247,-640
1794,2528,2925,-3026,766,-1399,-4163,41,247,-640
1795,2564,3146,-2831,1013,-1417,-4693,41,247,-640
1796,2604,3015,-2642,1298,-1421,-5189,41,247,-640
1797,2537,2799,-2605,1553,-1416,-5676,41,247,-640
1798,2430,2461,-2626,1795,-1328,-6083,41,247,-640
1799,2354,1986,-2651,1933,-1228,-6413,41,247,-640
1800,2031,1343,-2795,1981,-1002,-6716,41,247,-640
1801,1969,1087,-2895,2216,-720,-6878,41,247,-640
1802,1781,508,-3168,2415,-371,-6876,-26,239,-643
1803,1544,-183,-3572,2274,5,-6795,-26,239,-643
1804,1457,-688,-3887,1903,373,-6619,-26,239,-643
1805,1239,-1455,-4183,905,924,-6431,-26,239,-643
1806,680,-730,-3610,846,1715,-5897,-26,239,-643
1807,1014,-1100,-4329,1668,2033,-5437,-26,239,-643
1808,1075,-1629,-4789,1575,2071,-5063,-26,239,-643
1809,1121,-1766,-4977,1207,1869,-4693,-26,239,-643
1810,716,-1971,-5283,411,1933,-4348,-26,239,-643
1811,936,-1908,-5144,-67,1948,-3941,-26,239,-643
1812,769,-1850,-5168,-378,1827,-3502,-26,239,-643
1813,829,-1732,-4981,-466,1688,-3072,-26,239,-643
1814,728,-1678,-5001,-392,1465,-2675,-26,239,-643
1815,800,-1583,-4885,-185,1352,-2234,-26,239,-643
1816,879,-1545,-4923,29,1115,-1819,-26,239,-643
1817,897,-1538,-4973,172,923,-1386,-26,239,-643
1818,1016,-1441,-5072,199,729,-980,-44,235,-656
1819,1144,-1277,-5067,128,494,-669,-44,235,-656
1820,1245,-872,-4869,-102,287,-508,-44,235,-656
1821,1348,-519,-4698,-287,143,-394,-44,235,-656
1822,1356,-382,-4503,-326,41,-296,-44,235,-656
1823,1425,-197,-4415,-96,-123,-200,-44,235,-656
1824,1329,-157,-4393,178,-76,-92,-44,235,-656
1825,1389,-77,-4332,430,9,-10,-44,235,-656
1826,1485,-165,-4332,589,-8,64,-44,235,-656
1827,1428,-170,-4390,619,3,101,-44,235,-656
1828,1473,-216,-4396,592,43,119,-44,235,-656
1829,1531,-275,-4330,549,79,145,-44,235,-656
1830,1477,-315,-4356,517,70,182,-44,235,-656
1831,1444,-460,-4378,528,40,251,-44,235,-656
1832,1470,-489,-4366,519,14,318,-44,235,-656
1833,1504,-561,-4358,475,-76,413,-44,235,-656
1834,1509,-527,-4494,380,-159,493,-31,223,-656
1835,1481,-528,-4519,243,-169,570,-31,223,-656
1836,1465,-427,-4551,120,-177,612,-31,223,-656
1837,1497,-446,-4501,-36,-275,603,-31,223,-656
1838,1543,-392,-4475,-153,-452,636,-31,223,-656
1839,1491,-193,-4368,-342,-509,596,-31,223,-656
1840,1309,228,-4157,-534,-222,480,-31,223,-656
1841,1315,375,-4055,-445,79,378,-31,223,-656
1842,1437,144,-4143,-149,151,371,-31,223,-656
1843,1448,-12,-4292,112,96,431,-31,223,-656
1844,1490,-127,-4371,103,-55,484,-31,223,-656
1845,1391,98,-4363,-55,25,488,-31,223,-656
1846,1391,149,-4221,-163,141,481,-31,223,-656
1847,1411,188,-4234,-131,193,486,-31,223,-656
1848,1537,192,-4232,19,156,555,-31,223,-656
1849,1506,157,-4196,78,36,570,-31,223,-656
1850,1446,176,-4258,47,-10,596,-33,220,-652
1851,1458,203,-4161,-7,16,635,-33,220,-652
1852,1494,248,-4138,-5,27,658,-33,220,-652
1853,1505,296,-4189,16,-2,694,-33,220,-652
1854,1506,414,-4224,43,7,690,-33,220,-652
1855,1576,489,-4240,123,-51,689,-33,220,-652
1856,1525,421,-4301,157,-105,688,-33,220,-652
1857,1615,467,-4267,188,-189,688,-33,220,-652
1858,1572,477,-4238,190,-291,682,-33,220,-652
1859,1514,394,-4241,117,-315,675,-33,220,-652
1860,1496,490,-4188,42,-230,667,-33,220,-652
1861,1562,385,-4142,29,-369,665,-33,220,-652
1862,1587,454,-4189,49,-403,686,-33,220,-652
1863,1467,455,-4227,12,-375,677,-33,220,-652
1864,1447,429,-4205,-38,-363,662,-33,220,-652
1865,1462,405,-4223,-90,-358,674,-33,220,-652
1866,1491,421,-4272,-85,-371,697,-38,225,-659
1867,1436,373,-4338,-84,-400,722,-38,225,-659
1868,1411,347,-4351,-138,-366,735,-38,225,-659
1869,1480,364,-4269,-146,-385,760,-38,225,-659
1870,1480,407,-4283,-192,-367,767,-38,225,-659
1871,1474,419,-4249,-216,-423,781,-38,225,-659
1872,1496,548,-4208,-209,-393,779,-38,225,-659
1873,1492,526,-4161,-226,-364,750,-38,225,-659
1874,1510,558,-4096,-227,-371,726,-38,225,-659
1875,1572,648,-4046,-216,-397,706,-38,225,-659
1876,1483,668,-4061,-224,-386,650,-38,225,-659
1877,1480,656,-4012,-223,-305,607,-38,225,-659
1878,1466,668,-4001,-246,-197,571,-38,225,-659
1879,1539,662,-3947,-210,-222,536,-38,225,-659
1880,1465,630,-4045,-250,-209,504,-38,225,-659
1881,1544,676,-4026,-223,-221,452,-38,225,-659
1882,1508,658,-4029,-204,-228,405,-32,218,-660
1883,1534,644,-4091,-208,-254,378,-32,218,-660
1884,1478,585,-4092,-223,-247,347,-32,218,-660
1885,1473,527,-4110,-260,-235,327,-32,218,-660
1886,1456,536,-4082,-271,-262,303,-32,218,-660
1887,1419,483,-4111,-291,-246,298,-32,218,-660
1888,1405,489,-4093,-292,-215,302,-32,218,-660
1889,1412,475,-4067,-299,-176,296,-32,218,-660
1890,1410,473,-4045,-298,-193,306,-32,218,-660
1891,1394,465,-4056,-282,-201,299,-32,218,-660
1892,1406,474,-4029,-265,-201,296,-32,218,-660
1893,1389,440,-4074,-257,-217,292,-32,218,-660
1894,1376,483,-4025,-279,-211,289,-32,218,-660
1895,1385,453,-4018,-271,-225,276,-32,218,-660
1896,1372,479,-3956,-258,-215,274,-32,218,-660
1897,1377,532,-3952,-245,-192,251,-32,218,-660
1898,1389,533,-3884,-224,-181,237,-38,223,-651
1899,1374,542,-3878,-197,-178,211,-38,223,-651
1900,1350,526,-3928,-177,-159,184,-38,223,-651
1901,1367,494,-3914,-142,-155,174,-38,223,-651
1902,1352,492,-3933,-132,-158,156,-38,223,-651
1903,1327,460,-3992,-146,-139,151,-38,223,-651
1904,1339,412,-3993,-139,-109,138,-38,223,-651
1905,1367,313,-4070,-148,-133,147,-38,223,-651
1906,1343,261,-4086,-170,-180,169,-38,223,-651
1907,1345,207,-4181,-209,-250,196,-38,223,-651
1908,1395,155,-4282,-240,-418,223,-38,223,-651
1909,1317,159,-4392,-245,-477,271,-38,223,-651
1910,1296,86,-4321,-255,-528,311,-38,223,-651
1911,1291,36,-4353,-311,-638,363,-38,223,-651
1912,1270,-34,-4428,-424,-728,404,-38,223,-651
1913,1289,-195,-4330,-506,-793,516,-38,223,-651
1914,1160,-6,-4339,-519,-739,586,-50,233,-655
1915,1202,14,-4254,-543,-754,629,-50,233,-655
1916,1211,60,-4243,-522,-723,707,-50,233,-655
1917,1168,32,-4299,-551,-680,761,-50,233,-655
1918,1297,119,-4260,-510,-665,808,-50,233,-655
1919,1257,132,-4265,-524,-695,847,-50,233,-655
1920,1300,240,-4246,-482,-717,885,-50,233,-655
1921,1296,132,-4225,-429,-703,935,-50,233,-655
1922,1214,390,-4225,-338,-604,941,-50,233,-655
1923,1307,321,-4151,-239,-586,945,-50,233,-655
1924,1285,320,-4133,-209,-567,937,-50,233,-655
1925,1319,336,-4098,-198,-586,926,-50,233,-655
1926,1314,348,-4064,-189,-624,909,-50,233,-655
1927,1263,380,-4042,-169,-622,898,-50,233,-655
1928,1253,360,-4055,-122,-580,895,-50,233,-655
1929,1231,295,-4056,-66,-531,901,-50,233,-655
1930,1225,182,-4092,-63,-510,926,-42,228,-650
1931,1238,111,-4110,-88,-569,944,-42,228,-650
1932,1219,76,-4171,-115,-654,972,-42,228,-650
1933,1138,70,-4224,-133,-697,1002,-42,228,-650
1934,1089,-9,-4238,-136,-714,1053,-42,228,-650
1935,1067,-148,-4324,-166,-691,1122,-42,228,-650
1936,1062,-235,-4349,-225,-685,1212,-42,228,-650
1937,1088,-287,-4333,-277,-686,1323,-42,228,-650
1938,1057,-215,-4321,-282,-691,1418,-42,228,-650
1939,994,-110,-4330,-282,-701,1507,-42,228,-650
1940,1161,-24,-4329,-301,-675,1566,-42,228,-650
1941,1174,102,-4260,-301,-674,1602,-42,228,-650
1942,1243,267,-4306,-293,-626,1614,-42,228,-650
1943,1324,375,-4267,-282,-642,1595,-42,228,-650
1944,1342,497,-4209,-255,-659,1546,-42,228,-650
1945,1359,585,-4162,-230,-669,1485,-42,228,-650
1946,1372,616,-4155,-202,-654,1415,-52,232,-646
1947,1357,703,-4051,-175,-616,1341,-52,232,-646
1948,1390,715,-3990,-154,-560,1275,-52,232,-646
1949,1376,803,-3922,-129,-500,1257,-52,232,-646
1950,1250,802,-3960,-159,-471,1088,-52,232,-646
1951,1306,775,-3877,-118,-380,986,-52,232,-646
1952,1300,721,-3876,-70,-320,910,-52,232,-646
1953,1258,753,-3890,-34,-243,824,-52,232,-646
1954,1333,645,-3829,-10,-193,755,-52,232,-646
1955,1331,734,-3879,25,-126,685,-52,232,-646
1956,1271,600,-3976,-11,-68,614,-52,232,-646
1957,1295,579,-3938,7,-6,573,-52,232,-646
1958,1198,458,-3967,-4,-19,539,-52,232,-646
1959,1161,356,-4021,7,-2,531,-52,232,-646
1960,1226,114,-4144,-73,-63,566,-52,232,-646
1961,1038,194,-4287,-150,-90,568,-52,232,-646
1962,1117,27,-4257,-234,-89,629,-52,239,-647
1963,1159,151,-4275,-298,-172,630,-54,239,-647
1964,1136,166,-4196,-210,-122,696,-54,239,-647
1965,1221,311,-4209,-266,-197,687,-54,239,-647
1966,1162,324,-4170,-158,-176,733,-54,239,-647
1967,1178,353,-4204,-212,-183,720,-54,239,-647
1968,1163,446,-4178,-175,-183,717,-54,239,-647
1969,1230,434,-4110,-156,-216,706,-54,239,-647
1970,1202,527,-4101,-72,-216,698,-54,239,-647
1971,1230,514,-4137,-25,-219,674,-54,239,-647
1972,1205,552,-4142,5,-204,673,-54,239,-647
1973,1326,507,-4170,-83,-296,589,-54,239,-647
1974,1256,677,-4128,44,-161,576,-54,239,-647
1975,1423,623,-4081,-53,-194,510,-54,239,-647
1976,1254,777,-4095,64,-154,482,-54,239,-647
1977,1324,679,-4106,91,-151,429,-54,239,-647
1978,1241,701,-4119,128,-183,354,-54,239,-647
1979,1263,566,-4158,94,-163,307,-47,228,-648
1980,1284,573,-4173,20,-218,240,-47,228,-648
1981,1245,576,-4121,-30,-182,192,-47,228,-648
1982,1225,557,-4143,-70,-150,145,-47,228,-648
1983,1239,550,-4105,-62,-99,105,-47,228,-648
1984,1278,566,-4135,-53,-75,70,-47,228,-648
1985,1279,526,-4119,-57,-89,28,-47,228,-648
1986,1241,534,-4223,-74,-84,-13,-47,228,-648
1987,1241,478,-4264,-127,-87,-51,-47,228,-648
1988,1240,456,-4266,-178,-101,-84,-47,228,-648
1989,1215,431,-4246,-207,-123,-100,-47,228,-648
1990,1196,415,-4211,-213,-157,-126,-47,228,-648
1991,1185,409,-4158,-200,-163,-124,-47,228,-648
1992,1149,359,-4146,-177,-153,-124,-47,228,-648
1993,1122,293,-4198,-183,-157,-109,-47,228,-648
1994,1095,243,-4236,-197,-170,-95,-47,228,-648
1995,1096,258,-4221,-212,-176,-76,-54,235,-637
1996,1096,287,-4227,-188,-167,-46,-54,235,-637
1997,1107,328,-4206,-156,-166,-29,-54,235,-637
1998,1134,353,-4256,-133,-164,-13,-54,235,-637
1999,1130,357,-4234,-136,-162,-7,-54,235,-637
2000,1131,381,-4221,-127,-156,-6,-54,235,-637
2001,1111,405,-4181,-112,-132,-7,-54,235,-637
2002,1096,364,-4163,-79,-115,-7,-54,235,-637
2003,1111,364,-4198,-64,-114,-10,-54,235,-637
2004,1150,368,-4165,-49,-123,-20,-54,235,-637
2005,1144,347,-4168,-54,-122,-27,-54,235,-637
2006,1133,342,-4214,-79,-103,-31,-54,235,-637
2007,1108,331,-4261,-105,-91,-37,-54,235,-637
2008,1149,311,-4253,-124,-89,-49,-54,235,-637
2009,1139,338,-4251,-127,-92,-55,-54,235,-637
2010,1182,305,-4275,-121,-103,-57,-54,235,-637
2011,1131,311,-4286,-132,-101,-52,-60,242,-649
2012,1128,298,-4256,-149,-93,-53,-60,242,-649
2013,1112,293,-4218,-148,-73,-52,-60,242,-649
2014,1157,315,-4228,-135,-58,-47,-60,242,-649
2015,1135,317,-4258,-128,-69,-50,-60,242,-649
2016,1160,277,-4257,-153,-97,-54,-60,242,-649
2017,1126,306,-4242,-186,-117,-67,-60,242,-649
2018,1129,270,-4196,-193,-114,-63,-60,242,-649
2019,1078,301,-4201,-186,-100,-52,-60,242,-649
2020,1090,322,-4195,-164,-89,-43,-60,242,-649
2021,1068,282,-4201,-150,-66,-36,-60,242,-649
2022,1058,265,-4158,-145,-41,-28,-60,242,-649
2023,1062,314,-4163,-133,-10,-8,-60,242,-649
2024,1073,261,-4132,-123,17,-3,-60,242,-649
2025,1083,258,-4163,-121,12,4,-60,242,-649
2026,1077,283,-4172,-107,-2,6,-60,242,-649
2027,1080,258,-4226,-83,-22,6,-53,232,-649
2028,1085,272,-4249,-77,-31,11,-53,232,-649
2029,1066,281,-4264,-83,-37,19,-53,232,-649
2030,1056,266,-4238,-91,-19,20,-53,232,-649
2031,1079,278,-4278,-97,-3,34,-53,232,-649
2032,1082,306,-4285,-89,9,36,-53,232,-649
2033,1098,298,-4207,-87,3,32,-53,232,-649
2034,1121,369,-4268,-78,-4,17,-53,232,-649
2035,1146,371,-4278,-88,-34,10,-53,232,-649
2036,1112,332,-4289,-97,-53,-15,-53,232,-649
2037,1120,315,-4321,-113,-79,-13,-53,232,-649
2038,1067,327,-4231,-137,-80,-26,-53,232,-649
2039,1097,312,-4208,-132,-68,-26,-53,232,-649
2040,1098,336,-4198,-137,-61,-13,-53,232,-649
2041,1087,301,-4168,-121,-45,-13,-53,232,-649
2042,1059,344,-4134,-111,-29,-5,-53,232,-649
2043,1080,316,-4130,-108,-15,-5,-53,232,-649
2044,1093,340,-4156,-107,-10,-5,-55,236,-642
2045,1078,329,-4198,-97,-8,-2,-55,236,-642
2046,1098,321,-4146,-95,-19,-2,-55,236,-642
2047,1101,331,-4142,-88,-24,1,-55,236,-642
2048,1089,317,-4189,-88,-8,8,-55,236,-642
2049,1081,343,-4153,-98,-2,0,-55,236,-642
2050,1056,359,-4118,-94,-4,11,-55,236,-642
2051,1104,369,-4128,-79,-3,8,-55,236,-642
2052,1098,354,-4177,-59,0,3,-55,236,-642
2053,1103,352,-4150,-36,7,6,-55,236,-642
2054,1078,337,-4210,-39,6,1,-55,236,-642
2055,1106,331,-4185,-54,17,-5,-55,236,-642
2056,1119,329,-4230,-67,2,-9,-55,236,-642
2057,1104,340,-4183,-68,-2,-6,-55,236,-642
2058,1098,306,-4181,-59,-16,-16,-55,236,-642
2059,1099,323,-4176,-55,-28,-2,-55,236,-642
2060,1071,329,-4229,-55,-17,-6,-58,246,-651
2061,1062,327,-4189,-54,-10,-1,-58,246,-651
2062,1085,318,-4190,-52,-9,2,-58,246,-651
2063,1108,340,-4177,-42,-16,2,-58,246,-651
2064,1103,324,-4187,-39,-30,-11,-58,246,-651
2065,1061,319,-4182,-28,-28,-11,-58,246,-651
2066,1074,332,-4249,-33,-10,-6,-58,246,-651
2067,1061,302,-4235,-33,0,2,-58,246,-651
2068,1087,279,-4237,-22,1,2,-58,246,-651
2069,1061,267,-4242,-37,6,8,-58,246,-651
2070,1094,251,-4210,-40,16,23,-58,246,-651
2071,1071,267,-4244,-59,28,20,-58,246,-651
2072,1100,260,-4263,-65,30,28,-58,246,-651
2073,1111,322,-4228,-76,8,31,-58,246,-651
2074,1117,354,-4226,-77,-9,22,-58,246,-651
2075,1100,361,-4217,-70,-7,21,-58,246,-651
2076,1112,377,-4235,-59,-12,2,-58,246,-651
2077,1114,381,-4193,-58,4,-7,-55,231,-646
2078,1120,348,-4265,-55,7,-10,-55,231,-646
2079,1140,348,-4268,-36,8,-22,-55,231,-646
2080,1108,351,-4293,-36,-9,-23,-55,231,-646
2081,1132,283,-4285,-44,-10,-26,-55,231,-646
2082,1120,272,-4317,-70,-33,-26,-55,231,-646
2083,1121,276,-4334,-96,-36,-26,-55,231,-646
2084,1088,281,-4322,-112,-46,-17,-55,231,-646
2085,1051,291,-4276,-101,-44,-16,-55,231,-646
2086,1094,299,-4235,-101,-42,-6,-55,231,-646
2087,1086,280,-4240,-110,-40,-12,-55,231,-646
2088,1096,265,-4228,-114,-19,-6,-55,231,-646
2089,1069,287,-4213,-117,-10,1,-55,231,-646
2090,1061,316,-4190,-104,-1,6,-55,231,-646
2091,1096,342,-4226,-94,10,3,-55,231,-646
2092,1100,331,-4155,-82,11,1,-55,231,-646
2093,1089,353,-4166,-76,18,-3,-56,234,-641
2094,1079,326,-4181,-70,26,-10,-56,234,-641
2095,1093,341,-4181,-63,35,-21,-56,234,-641
2096,1077,277,-4207,-54,29,-18,-56,234,-641
2097,1095,277,-4188,-57,0,-14,-56,234,-641
2098,1093,253,-4180,-63,-19,-14,-56,234,-641
2099,1083,264,-4189,-66,-24,-1,-56,234,-641
2100,1066,289,-4167,-71,-17,4,-56,234,-641
2101,1087,295,-4222,-71,-10,7,-56,234,-641
2102,1073,302,-4233,-77,-17,4,-56,234,-641
2103,1072,310,-4203,-76,-31,2,-56,234,-641
2104,1091,320,-4204,-64,-53,2,-56,234,-641
2105,1059,308,-4202,-63,-57,-7,-56,234,-641
2106,1080,309,-4138,-69,-51,-8,-56,234,-641
2107,1103,318,-4157,-62,-43,-11,-56,234,-641
2108,1062,315,-4176,-64,-33,-15,-56,234,-641
2109,1075,329,-4138,-74,-33,-21,-56,234,-641
2110,1042,312,-4113,-78,-31,-18,-60,243,-652
2111,1048,334,-4119,-62,-21,-24,-60,243,-652
2112,1023,319,-4152,-48,-7,-15,-60,243,-652
2113,1052,304,-4122,-39,10,-15,-60,243,-652
2114,1062,308,-4153,-31,7,-11,-60,243,-652
2115,1048,265,-4145,-14,5,-7,-60,243,-652
2116,1087,263,-4203,-14,-7,-6,-60,243,-652
2117,1085,307,-4198,-32,-8,3,-60,243,-652
2118,1083,295,-4220,-55,-12,0,-60,243,-652
2119,1099,313,-4257,-70,8,-1,-60,243,-652
2120,1066,335,-4148,-61,10,8,-60,243,-652
2121,1067,326,-4170,-48,-1,6,-60,243,-652
2122,1064,307,-4183,-35,4,12,-60,243,-652
2123,1061,285,-4229,-44,2,24,-60,243,-652
2124,1045,311,-4164,-54,16,26,-60,243,-652
2125,1073,312,-4173,-61,13,30,-60,243,-652
2126,1061,347,-4171,-36,15,35,-56,234,-649
2127,1091,361,-4186,-19,12,31,-56,234,-649
2128,1080,385,-4202,-11,1,30,-56,234,-649
2129,1089,402,-4186,-6,1,16,-56,234,-649
2130,1124,395,-4212,-7,-3,16,-56,234,-649
2131,1092,362,-4248,3,5,10,-56,234,-649
2132,1101,374,-4242,-2,-5,9,-56,234,-649
2133,1122,331,-4280,1,-17,1,-56,234,-649
2134,1128,309,-4311,-19,-42,-8,-56,234,-649
2135,1112,317,-4272,-23,-45,-4,-56,234,-649
2136,1104,345,-4267,-44,-54,-2,-56,234,-649
2137,1143,335,-4216,-53,-39,-6,-56,234,-649
2138,1116,341,-4209,-52,-35,-5,-56,234,-649
2139,1116,334,-4205,-51,-29,-6,-56,234,-649
2140,1132,347,-4235,-50,-12,-5,-56,234,-649
2141,1078,344,-4205,-59,-9,-7,-56,234,-649
2142,1134,346,-4204,-62,-7,-9,-56,234,-649
2143,1101,345,-4253,-70,-13,-24,-57,235,-643
2144,1094,331,-4261,-75,-15,-21,-57,235,-643
2145,1120,310,-4267,-82,-13,-20,-57,235,-643
2146,1093,314,-4213,-83,-7,-25,-57,235,-643
2147,1102,299,-4243,-91,5,-23,-57,235,-643
2148,1067,319,-4261,-87,16,-18,-57,235,-643
2149,1084,332,-4194,-88,35,-23,-57,235,-643
2150,1102,301,-4227,-86,53,-24,-57,235,-643
2151,1099,296,-4184,-77,60,-20,-57,235,-643
2152,1069,292,-4221,-75,40,-21,-57,235,-643
2153,1079,277,-4215,-74,22,-23,-57,235,-643
2154,1074,272,-4269,-62,4,-16,-57,235,-643
2155,1088,215,-4233,-62,1,-11,-57,235,-643
2156,1063,246,-4245,-65,-3,-6,-57,235,-643
2157,1072,284,-4200,-67,3,-1,-57,235,-643
2158,1088,292,-4245,-69,-1,4,-57,235,-643
2159,1061,319,-4204,-68,5,1,-57,235,-643
2160,1049,303,-4213,-67,7,3,-57,235,-643
2161,1079,290,-4199,-56,8,-4,-57,235,-643
2162,1084,253,-4201,-46,16,-2,-57,235,-643
2163,1070,259,-4193,-49,5,-10,-57,235,-643
2164,1040,255,-4162,-58,-3,0,-57,235,-643
2165,1070,216,-4202,-82,7,3,-57,235,-643
2166,1055,263,-4215,-94,4,12,-57,235,-643
2167,1066,301,-4219,-94,6,12,-57,235,-643
2168,1063,290,-4211,-91,11,17,-57,235,-643
2169,1081,298,-4217,-94,12,17,-57,235,-643
2170,1093,331,-4197,-103,24,9,-57,235,-643
2171,1091,307,-4165,-104,28,10,-57,235,-643
2172,1084,284,-4189,-102,33,5,-57,235,-643
2173,1075,285,-4204,-98,36,14,-57,235,-643
2174,1114,286,-4209,-81,19,15,-57,235,-643
2175,1080,275,-4182,-64,-13,20,-57,235,-643
2176,1062,304,-4242,-48,-17,32,-54,234,-648
2177,1074,301,-4157,-39,-21,39,-54,234,-648
2178,1062,299,-4180,-43,-12,37,-54,234,-648
2179,1077,332,-4194,-49,-7,46,-54,234,-648
2180,1070,332,-4176,-49,12,52,-54,234,-648
2181,1113,337,-4224,-43,9,52,-54,234,-648
2182,1101,350,-4260,-44,8,42,-54,234,-648
2183,1092,324,-4230,-66,-10,30,-54,234,-648
2184,1108,347,-4259,-78,-7,21,-54,234,-648
2185,1102,321,-4218,-76,-13,25,-54,234,-648
2186,1084,327,-4211,-72,-1,17,-54,234,-648
2187,1088,297,-4213,-71,16,18,-54,234,-648
2188,1105,296,-4191,-79,30,16,-54,234,-648
2189,1103,345,-4243,-95,45,23,-54,234,-648
2190,1096,319,-4245,-93,51,20,-54,234,-648
2191,1120,344,-4249,-88,49,22,-54,234,-648
2192,1120,368,-4253,-87,30,13,-54,234,-648
2193,1108,346,-4248,-92,26,7,-58,236,-646
2194,1115,360,-4206,-105,24,5,-58,236,-646
2195,1108,354,-4204,-103,31,-4,-58,236,-646
2196,1098,357,-4186,-97,38,-3,-58,236,-646
2197,1081,370,-4174,-70,38,-5,-58,236,-646
2198,1095,351,-4161,-51,48,-11,-58,236,-646
2199,1079,330,-4204,-31,51,-5,-58,236,-646
2200,1061,320,-4204,-11,41,-1,-58,236,-646
2201,1081,266,-4221,-23,17,-5,-58,236,-646
2202,1079,257,-4226,-22,0,-2,-58,236,-646
2203,1076,273,-4226,-31,-8,7,-58,236,-646
2204,1060,239,-4185,-39,-9,9,-58,236,-646
2205,1076,265,-4199,-40,-11,15,-58,236,-646
2206,1088,291,-4166,-36,1,17,-58,236,-646
2207,1081,298,-4176,-36,11,19,-58,236,-646
2208,1090,301,-4181,-46,18,16,-58,236,-646
2209,1052,269,-4195,-51,18,12,-58,244,-652
2210,1050,279,-4197,-32,12,15,-58,244,-652
2211,1064,285,-4185,-30,11,7,-58,244,-652
2212,1080,278,-4196,-33,18,14,-58,244,-652
2213,1078,280,-4246,-25,30,7,-58,244,-652
2214,1081,289,-4213,-33,40,12,-58,244,-652
2215,1115,299,-4190,-24,46,8,-58,244,-652
2216,1096,311,-4204,-33,37,0,-58,244,-652
2217,1095,325,-4234,-34,45,-4,-58,244,-652
2218,1079,321,-4212,-35,46,-7,-58,244,-652
2219,1103,307,-4224,-22,41,-10,-58,244,-652
2220,1098,284,-4265,-21,32,-8,-58,244,-652
2221,1086,231,-4346,-31,40,-7,-58,244,-652
2222,1082,257,-4275,-35,57,-7,-58,244,-652
2223,1085,298,-4315,-36,91,2,-58,244,-652
2224,1085,309,-4278,-19,148,7,-58,244,-652
2225,1074,296,-4211,-25,179,4,-58,244,-652
2226,1161,303,-4245,-79,81,-11,-52,228,-648
2227,1114,306,-4264,-70,51,-17,-52,228,-648
2228,1075,295,-4250,-21,47,-18,-52,228,-648
2229,1058,277,-4234,0,76,-21,-52,228,-648
2230,1093,237,-4196,-40,76,-13,-52,228,-648
2231,1122,227,-4230,-86,64,-10,-52,228,-648
2232,1101,258,-4179,-103,61,-8,-52,228,-648
2233,1117,262,-4142,-96,40,-9,-52,228,-648
2234,1113,272,-4176,-89,39,-4,-52,228,-648
2235,1091,283,-4157,-86,27,-1,-52,228,-648
2236,1077,294,-4236,-80,12,-3,-52,228,-648
2237,1139,270,-4221,-84,2,0,-52,228,-648
2238,1086,293,-4260,-89,4,8,-52,228,-648
2239,1106,277,-4267,-107,1,0,-52,228,-648
2240,1110,301,-4218,-113,1,-1,-52,228,-648
2241,1093,300,-4284,-109,-5,3,-52,228,-648
2242,1101,317,-4197,-105,10,-2,-54,235,-646
2243,1085,327,-4169,-96,10,0,-54,235,-646
2244,1115,306,-4171,-94,25,2,-54,235,-646
2245,1054,306,-4178,-79,49,0,-54,235,-646
2246,1079,324,-4180,-73,60,13,-54,235,-646
2247,1105,311,-4179,-68,81,15,-54,235,-646
2248,1097,331,-4191,-47,107,13,-54,235,-646
2249,1080,306,-4202,-33,135,18,-54,235,-646
2250,1102,301,-4196,-22,154,20,-54,235,-646
2251,1079,335,-4211,-18,169,22,-54,235,-646
2252,1131,272,-4211,-4,147,18,-54,235,-646
2253,1150,192,-4189,-61,34,10,-54,235,-646
2254,1097,180,-4224,-130,-31,21,-54,235,-646
2255,1069,228,-4187,-144,-38,48,-54,235,-646
2256,1077,247,-4163,-131,-4,75,-54,235,-646
2257,1095,280,-4199,-139,9,94,-54,235,-646
2258,1139,331,-4187,-147,8,99,-54,235,-646
2259,1132,354,-4159,-121,-53,106,-57,242,-650
2260,1093,296,-4206,-90,-18,138,-57,242,-650
2261,1106,344,-4228,-85,-7,115,-57,242,-650
2262,1118,345,-4238,-93,1,114,-57,242,-650
2263,1129,323,-4214,-91,18,119,-57,242,-650
2264,1133,311,-4199,-67,16,120,-57,242,-650
2265,1100,289,-4245,-46,25,133,-57,242,-650
2266,1137,350,-4252,-40,46,153,-57,242,-650
2267,1111,329,-4216,-26,73,160,-57,242,-650
2268,1102,302,-4250,-1,125,202,-57,242,-650
2269,1059,260,-4276,42,176,236,-57,242,-650
2270,1115,202,-4328,-3,140,216,-57,242,-650
2271,1115,207,-4291,-36,68,216,-57,242,-650
2272,1120,308,-4311,-13,79,225,-57,242,-650
2273,1119,333,-4331,7,129,220,-57,242,-650
2274,1112,332,-4266,-23,173,166,-57,242,-650
2275,1126,360,-4274,-96,191,95,-46,231,-647
2276,1190,462,-4167,-181,178,41,-46,231,-647
2277,1174,478,-4066,-238,176,-20,-46,231,-647
2278,1145,460,-4056,-173,192,-47,-46,231,-647
2279,1119,428,-4061,-25,221,-42,-46,231,-647
2280,1123,338,-4104,58,225,-39,-46,231,-647
2281,1094,293,-4182,53,246,-34,-46,231,-647
2282,1131,268,-4236,3,261,-30,-46,231,-647
2283,1168,258,-4179,-37,245,-35,-46,231,-647
2284,1149,240,-4198,-55,174,-35,-46,231,-647
2285,1167,231,-4196,-74,96,-35,-46,231,-647
2286,1139,271,-4197,-66,52,-26,-46,231,-647
2287,1159,326,-4182,-71,41,-27,-46,231,-647
2288,1095,282,-4175,-68,69,-19,-46,231,-647
2289,1106,274,-4181,-87,85,-20,-46,231,-647
2290,1114,287,-4179,-95,80,-22,-46,231,-647
2291,1151,260,-4248,-109,39,-30,-46,231,-647
2292,1123,261,-4234,-114,9,-26,-46,231,-647
2293,1137,273,-4205,-101,2,-21,-46,231,-647
2294,1137,315,-4204,-94,7,-21,-46,231,-647
2295,1172,337,-4194,-77,-5,-22,-46,231,-647
2296,1192,404,-4204,-88,0,-33,-46,231,-647
2297,1154,358,-4191,-89,1,-47,-46,231,-647
2298,1118,369,-4237,-80,-3,-62,-46,231,-647
2299,1141,329,-4162,-64,23,-59,-46,231,-647
2300,1112,317,-4167,-53,42,-54,-46,231,-647
2301,1140,281,-4170,-28,35,-42,-46,231,-647
2302,1133,267,-4170,-7,34,-31,-46,231,-647
2303,1133,263,-4190,-6,32,-15,-46,231,-647
2304,1162,213,-4182,-14,42,-7,-46,231,-647
2305,1133,276,-4175,-32,52,-3,-46,231,-647
2306,1118,280,-4183,-51,60,0,-46,231,-647
2307,1171,329,-4207,-48,62,1,-46,231,-647
2308,1152,296,-4234,-29,49,0,-49,240,-651
2309,1185,298,-4247,-32,32,-1,-49,240,-651
2310,1176,272,-4253,-42,24,-9,-49,240,-651
2311,1144,250,-4270,-53,17,4,-49,240,-651
2312,1141,259,-4264,-44,18,8,-49,240,-651
2313,1165,232,-4239,-57,-2,3,-49,240,-651
2314,1161,229,-4234,-68,-6,17,-49,240,-651
2315,1150,275,-4175,-86,11,21,-49,240,-651
2316,1152,305,-4254,-91,15,17,-49,240,-651
2317,1166,314,-4255,-79,24,6,-49,240,-651
2318,1158,317,-4222,-80,15,-1,-49,240,-651
2319,1163,307,-4188,-71,20,-7,-49,240,-651
2320,1183,311,-4216,-69,28,-23,-49,240,-651
2321,1173,288,-4208,-66,11,-23,-49,240,-651
2322,1163,284,-4133,-86,8,-35,-49,240,-651
2323,1170,296,-4167,-86,12,-36,-49,240,-651
2324,1158,319,-4185,-81,42,-36,-49,240,-651
2325,1172,238,-4235,-81,28,-33,-41,231,-651
2326,1185,332,-4229,-105,17,-41,-41,231,-651
2327,1156,259,-4254,-98,4,-45,-41,231,-651
2328,1148,249,-4275,-89,-1,-31,-41,231,-651
2329,1154,252,-4279,-89,-10,-28,-41,231,-651
2330,1140,236,-4237,-108,-3,-30,-41,231,-651
2331,1121,252,-4233,-141,1,-23,-41,231,-651
2332,1115,244,-4204,-156,17,-14,-41,231,-651
2333,1129,250,-4170,-146,23,-8,-41,231,-651
2334,1130,254,-4177,-114,18,2,-41,231,-651
2335,1108,297,-4209,-90,14,10,-41,231,-651
2336,1125,281,-4172,-85,8,16,-41,231,-651
2337,1122,269,-4203,-89,15,15,-41,231,-651
2338,1134,290,-4158,-99,16,16,-41,231,-651
2339,1136,282,-4178,-82,29,25,-41,231,-651
2340,1132,275,-4177,-71,27,27,-41,231,-651
2341,1125,245,-4180,-54,24,34,-47,233,-646
2342,1126,273,-4189,-58,25,41,-47,233,-646
2343,1121,287,-4213,-76,37,47,-47,233,-646
2344,1117,290,-4155,-100,28,45,-47,233,-646
2345,1139,293,-4109,-117,28,42,-47,233,-646
2346,1144,288,-4177,-117,38,40,-47,233,-646
2347,1136,325,-4153,-110,37,35,-47,233,-646
2348,1133,330,-4174,-97,43,27,-47,233,-646
2349,1147,342,-4173,-105,59,20,-47,233,-646
2350,1140,297,-4145,-88,69,14,-47,233,-646
2351,1151,302,-4197,-94,74,11,-47,233,-646
2352,1143,320,-4193,-82,72,10,-47,233,-646
2353,1138,328,-4206,-75,65,5,-47,233,-646
2354,1163,344,-4142,-79,60,-3,-47,233,-646
2355,1173,318,-4192,-81,39,-11,-47,233,-646
2356,1166,328,-4199,-83,40,-9,-47,233,-646
2357,1142,351,-4211,-65,39,0,-47,233,-646
2358,1192,312,-4186,-54,34,-2,-51,240,-648
2359,1154,303,-4219,-50,16,4,-51,240,-648
2360,1168,317,-4186,-49,9,5,-51,240,-648
2361,1148,306,-4205,-46,7,5,-51,240,-648
2362,1143,320,-4181,-36,11,7,-51,240,-648
2363,1140,350,-4179,-30,-7,6,-51,240,-648
2364,1141,304,-4164,-20,-10,3,-51,240,-648
2365,1134,345,-4158,-12,-3,6,-51,240,-648
2366,1151,322,-4120,-12,21,11,-51,240,-648
2367,1162,287,-4161,-8,29,5,-51,240,-648
2368,1137,344,-4135,-19,47,11,-51,240,-648
2369,1134,315,-4158,-20,48,10,-51,240,-648
2370,1137,315,-4176,-18,57,5,-51,240,-648
2371,1179,280,-4147,-22,47,3,-51,240,-648
2372,1161,273,-4176,-46,28,3,-51,240,-648
2373,1149,289,-4197,-54,26,1,-51,240,-648
2374,1142,274,-4185,-61,30,1,-41,231,-648
2375,1148,312,-4156,-74,37,4,-41,231,-648
2376,1180,323,-4204,-64,48,5,-41,231,-648
2377,1159,323,-4218,-66,57,4,-41,231,-648
2378,1177,288,-4223,-65,48,-4,-41,231,-648
2379,1200,313,-4237,-78,46,-14,-41,231,-648
2380,1193,295,-4257,-69,30,-17,-41,231,-648
2381,1160,303,-4276,-47,22,-23,-41,231,-648
2382,1174,273,-4280,-38,0,-21,-41,231,-648
2383,1170,279,-4286,-45,-26,-21,-41,231,-648
2384,1150,262,-4246,-54,-32,-5,-41,231,-648
2385,1137,252,-4188,-52,-13,7,-41,231,-648
2386,1117,270,-4220,-44,-7,16,-41,231,-648
2387,1128,246,-4211,-42,7,19,-41,231,-648
2388,1145,310,-4166,-43,6,26,-41,231,-648
2389,1146,291,-4162,-36,14,22,-41,231,-648
2390,1157,300,-4165,-24,24,27,-41,231,-648
2391,1129,269,-4156,-10,20,18,-44,232,-646
2392,1125,266,-4193,-2,24,15,-44,232,-646
2393,1145,248,-4127,-7,33,20,-44,232,-646
2394,1124,233,-4160,-24,43,18,-44,232,-646
2395,1141,273,-4133,-53,54,19,-44,232,-646
2396,1173,332,-4149,-68,66,14,-44,232,-646
2397,1174,306,-4171,-67,59,9,-44,232,-646
2398,1159,299,-4207,-69,58,3,-44,232,-646
2399,1190,286,-4229,-81,38,-7,-44,232,-646
2400,1174,262,-4241,-87,28,-7,-44,232,-646
2401,1167,284,-4263,-91,16,-6,-44,232,-646
2402,1157,279,-4273,-89,6,-8,-44,232,-646
2403,1183,303,-4292,-78,-9,-18,-44,232,-646
2404,1185,329,-4265,-74,-17,-13,-44,232,-646
2405,1177,299,-4245,-68,-21,-23,-44,232,-646
2406,1195,293,-4298,-84,-23,-28,-44,232,-646
2407,1179,296,-4252,-92,-31,-42,-48,238,-652
2408,1154,309,-4258,-90,-34,-36,-48,238,-652
2409,1197,269,-4269,-93,-32,-33,-48,238,-652
2410,1160,293,-4248,-90,-31,-31,-48,238,-652
2411,1167,261,-4263,-83,-29,-25,-48,238,-652
2412,1162,245,-4244,-88,-21,-18,-48,238,-652
2413,1152,252,-4217,-94,-12,-6,-48,238,-652
2414,1147,260,-4258,-87,-10,-8,-48,238,-652
2415,1173,230,-4209,-93,-2,1,-48,238,-652
2416,1154,234,-4161,-99,14,5,-48,238,-652
2417,1147,256,-4164,-100,18,10,-48,238,-652
2418,1158,267,-4269,-101,25,9,-48,238,-652
2419,1168,256,-4203,-88,26,12,-48,238,-652
2420,1129,288,-4170,-97,30,13,-48,238,-652
2421,1156,280,-4186,-97,42,12,-48,238,-652
2422,1177,282,-4141,-103,60,12,-48,238,-652
2423,1172,309,-4130,-87,62,11,-48,238,-652
2424,1166,325,-4126,-71,92,11,-38,231,-647
2425,1181,310,-4097,-80,75,7,-38,231,-647
2426,1173,310,-4137,-86,59,-3,-38,231,-647
2427,1179,307,-4122,-79,43,-17,-38,231,-647
2428,1182,298,-4149,-68,12,-21,-38,231,-647
2429,1145,249,-4175,-77,-13,-19,-38,231,-647
2430,1140,241,-4136,-91,-29,-8,-38,231,-647
2431,1127,238,-4217,-99,-28,3,-38,231,-647
2432,1123,244,-4135,-112,-26,13,-38,231,-647
2433,1129,277,-4169,-110,-31,16,-38,231,-647
2434,1166,315,-4164,-97,-27,24,-38,231,-647
2435,1161,315,-4197,-77,-24,24,-38,231,-647
2436,1151,299,-4197,-73,-25,24,-38,231,-647
2437,1120,308,-4170,-77,-16,20,-38,231,-647
2438,1145,306,-4135,-81,-21,14,-38,231,-647
2439,1155,326,-4181,-73,-11,17,-38,231,-647
2440,1130,296,-4139,-59,-6,24,-45,235,-643
2441,1160,309,-4160,-52,-3,22,-45,235,-643
2442,1154,334,-4145,-49,-12,20,-45,235,-643
2443,1153,334,-4124,-43,16,16,-45,235,-643
2444,1159,347,-4125,-37,20,11,-45,235,-643
2445,1137,327,-4157,-33,41,10,-45,235,-643
2446,1163,307,-4109,-20,13,6,-45,235,-643
2447,1163,277,-4158,-23,-12,8,-45,235,-643
2448,1151,271,-4115,-29,-12,15,-45,235,-643
2449,1133,283,-4176,-36,0,20,-45,235,-643
2450,1171,334,-4171,-43,9,18,-45,235,-643
2451,1152,318,-4149,-46,8,21,-45,235,-643
2452,1142,326,-4144,-37,14,15,-45,235,-643
2453,1154,313,-4143,-27,18,17,-45,235,-643
2454,1168,293,-4160,-15,16,13,-45,235,-643
2455,1191,296,-4231,-10,9,17,-45,235,-643
2456,1165,289,-4208,-19,6,15,-45,235,-643
2457,1193,310,-4220,-28,10,12,-48,240,-650
2458,1166,295,-4224,-26,12,10,-48,240,-650
2459,1175,323,-4173,-25,16,5,-48,240,-650
2460,1171,308,-4205,-17,19,7,-48,240,-650
2461,1183,299,-4187,-7,23,10,-48,240,-650
2462,1161,303,-4208,-4,27,11,-48,240,-650
2463,1179,269,-4204,-8,28,8,-48,240,-650
2464,1147,248,-4205,-12,19,14,-48,240,-650
2465,1160,279,-4246,-2,30,18,-48,240,-650
2466,1179,281,-4209,-15,15,18,-48,240,-650
2467,1191,273,-4247,-21,19,18,-48,240,-650
2468,1176,294,-4206,-33,21,21,-48,240,-650
2469,1148,306,-4233,-41,26,17,-48,240,-650
2470,1187,306,-4236,-36,30,11,-48,240,-650
2471,1207,304,-4244,-42,21,5,-48,240,-650
2472,1185,292,-4286,-48,19,5,-48,240,-650
2473,1173,277,-4269,-45,8,-4,-48,240,-650
2474,1162,259,-4270,-38,4,7,-48,240,-650
2475,1185,276,-4261,-39,-19,2,-48,240,-650
2476,1173,257,-4267,-38,-29,2,-48,240,-650
2477,1139,248,-4269,-36,-35,8,-48,240,-650
2478,1150,266,-4209,-42,-29,20,-48,240,-650
2479,1154,255,-4183,-47,-12,28,-48,240,-650
2480,1160,249,-4130,-42,-17,35,-48,240,-650
2481,1156,247,-4173,-37,-11,39,-48,240,-650
2482,1156,240,-4186,-24,-9,39,-48,240,-650
2483,1167,266,-4160,-20,10,39,-48,240,-650
2484,1143,237,-4132,-42,11,30,-48,240,-650
2485,1175,286,-4139,-48,17,23,-48,240,-650
2486,1159,255,-4174,-51,22,19,-48,240,-650
2487,1144,268,-4130,-46,18,17,-48,240,-650
2488,1163,289,-4134,-38,31,19,-48,240,-650
2489,1152,237,-4144,-32,38,20,-48,240,-650
2490,1158,236,-4200,-47,29,20,-41,232,-646
2491,1138,243,-4207,-58,24,20,-41,232,-646
2492,1146,252,-4217,-47,21,23,-41,232,-646
2493,1180,303,-4231,-50,9,21,-41,232,-646
2494,1210,250,-4260,-45,7,18,-41,232,-646
2495,1191,305,-4234,-55,7,12,-41,232,-646
2496,1190,293,-4210,-71,12,6,-41,232,-646
2497,1195,283,-4197,-69,9,-2,-41,232,-646
2498,1182,256,-4231,-51,13,5,-41,232,-646
2499,1161,264,-4202,-38,14,1,-41,232,-646
2500,1196,264,-4245,-31,1,8,-41,232,-646
